"Time (s)","Acceleration x (m/s^2)","Acceleration y (m/s^2)","Acceleration z (m/s^2)"
2.198182800E-2,-1.669955701E-1,1.647809267E0,1.010951710E1
2.328599500E-2,-1.957259923E-1,1.781884670E0,1.017176628E1
2.495589000E-2,-1.813607812E-1,1.920748353E0,1.016697788E1
2.692109900E-2,-1.957259923E-1,2.035670042E0,1.009515190E1
2.888630700E-2,-2.053027898E-1,2.050035238E0,1.007599831E1
3.085151500E-2,-1.957259923E-1,2.021304846E0,1.010472870E1
3.281672400E-2,-1.717839688E-1,2.035670042E0,1.008078671E1
3.478193200E-2,-1.909375787E-1,1.973420739E0,1.005684471E1
3.674714000E-2,-1.765723825E-1,1.944690347E0,1.006163311E1
3.871234900E-2,-2.196680009E-1,1.853710651E0,1.007120991E1
4.067755700E-2,-2.244564146E-1,1.791461468E0,1.009994030E1
4.264276500E-2,-1.861491799E-1,1.796249866E0,1.015261269E1
4.460797400E-2,-1.669955701E-1,1.820191860E0,1.026274586E1
4.657318200E-2,-1.430535465E-1,1.901594758E0,1.032020664E1
4.853839000E-2,-1.526303589E-1,1.915959954E0,1.030105305E1
5.050359900E-2,-2.053027898E-1,1.954267144E0,1.028189945E1
5.246880700E-2,-2.723404467E-1,2.040458441E0,1.027232265E1
5.443401500E-2,-3.298012912E-1,2.069188833E0,1.019091988E1
5.639922400E-2,-4.064157307E-1,2.069188833E0,1.010472870E1
5.836443200E-2,-4.686649740E-1,2.078765631E0,1.006163311E1
6.032964000E-2,-4.734533727E-1,2.073977232E0,1.000417137E1
6.229484900E-2,-4.255693555E-1,2.136226416E0,9.980229378E0
6.426005700E-2,-4.159925580E-1,2.222417831E0,9.903614998E0
6.622526500E-2,-4.447229803E-1,2.217629433E0,9.803058624E0
6.819047400E-2,-4.064157307E-1,2.208052635E0,9.640253067E0
7.015568200E-2,-3.824737072E-1,2.141014814E0,9.520543098E0
7.212089000E-2,-3.872621357E-1,2.078765631E0,9.530119896E0
7.408609900E-2,-4.064157307E-1,2.035670042E0,9.640253067E0
7.605130700E-2,-3.824737072E-1,2.064400434E0,9.664195061E0
7.801651500E-2,-2.771288455E-1,2.198475599E0,9.692925453E0
7.998172400E-2,-1.334767491E-1,2.322974205E0,9.640253067E0
8.194693200E-2,-1.095347255E-1,2.318185806E0,9.448717117E0
8.391214000E-2,-8.559270948E-2,2.246359825E0,9.343372345E0
8.587734900E-2,-7.122749835E-2,2.212841034E0,9.223662376E0
8.784333800E-2,-1.191115379E-1,2.160168409E0,9.276334763E0
8.981130700E-2,1.496376097E-2,2.255936623E0,9.271546364E0
9.178229700E-2,1.298854351E-1,2.308609009E0,9.166201591E0
9.375719300E-2,1.203086376E-1,2.198475599E0,8.993818283E0
9.573667200E-2,1.203086376E-1,2.193687201E0,9.103952408E0
9.772125500E-2,1.538274586E-1,2.255936623E0,9.099164009E0
9.971120300E-2,1.586158574E-1,2.299032211E0,9.070432663E0
1.017065150E-1,1.203086376E-1,2.342127800E0,9.151836395E0
1.037070360E-1,1.346738487E-1,2.308609009E0,8.945934296E0
1.057124010E-1,-4.189853091E-3,2.136226416E0,9.041702271E0
1.077220360E-1,2.454056777E-2,2.270301819E0,9.276334763E0
1.097352130E-1,2.112883031E-1,2.476203203E0,9.357737541E0
1.117510990E-1,1.394622475E-1,2.466626406E0,9.300276756E0
1.137688070E-1,6.763619930E-2,2.356492996E0,9.223662376E0
1.157874010E-1,5.805939063E-2,2.404376984E0,9.453505516E0
1.178058900E-1,1.538274586E-1,2.581547976E0,9.482235909E0
1.198020360E-1,1.873462796E-1,2.571971178E0,9.376891136E0
1.217981820E-1,2.932897024E-2,2.442684174E0,9.510966301E0
1.237943280E-1,-6.165069342E-2,2.452261209E0,9.635464668E0
1.257904740E-1,1.873462796E-1,2.787449360E0,9.726444244E0
1.277866200E-1,9.636662155E-2,2.696469545E0,9.472659111E0
1.297827650E-1,-6.643909961E-2,2.495356798E0,9.400833130E0
1.317789110E-1,-3.058592677E-1,2.198475599E0,9.664195061E0
1.337750570E-1,5.985504249E-4,2.797026157E0,1.015261269E1
1.357712030E-1,-7.122749835E-2,2.725200176E0,9.654618263E0
1.377673490E-1,-1.574187577E-1,2.701258183E0,9.807847023E0
1.397634950E-1,-3.058592677E-1,2.629431963E0,9.721655846E0
1.417596400E-1,-4.112041295E-1,2.428318977E0,9.759963036E0
1.437557860E-1,-2.579752207E-1,2.859275341E0,1.012867069E1
1.457519320E-1,-1.622071713E-1,2.744353771E0,9.908403397E0
1.477480780E-1,-2.771288455E-1,2.787449360E0,9.999382973E0
1.497442240E-1,-2.531868219E-1,2.983773947E0,1.001374817E1
1.517403700E-1,-3.058592677E-1,2.619855165E0,9.726444244E0
1.537365150E-1,-4.303577542E-1,2.370858192E0,9.745597839E0
1.557326610E-1,-4.926069975E-1,2.361281395E0,1.021486187E1
1.577288070E-1,-2.148796022E-1,2.797026157E0,1.004726696E1
1.597249530E-1,-3.345896900E-1,2.500145197E0,1.004247856E1
1.617210990E-1,-3.489548862E-1,2.648585558E0,9.927556992E0
1.637172450E-1,-4.016273320E-1,2.351704597E0,9.592369080E0
1.657133900E-1,-2.005143911E-1,2.806602955E0,1.005205631E1
1.677095360E-1,-3.728969097E-1,2.404376984E0,9.496601105E0
1.697056820E-1,-5.213374496E-1,1.939901948E0,9.381679535E0
1.717018280E-1,-4.447229803E-1,2.193687201E0,1.024359226E1
1.736979740E-1,-4.255693555E-1,2.351704597E0,1.000895977E1
1.756941200E-1,-5.213374496E-1,2.246359825E0,9.640253067E0
1.776902650E-1,-3.154360652E-1,2.706046581E0,1.005684471E1
1.796864110E-1,-3.633201122E-1,2.878428936E0,9.597157478E0
1.816825570E-1,-4.686649740E-1,2.648585558E0,9.113529205E0
1.836787030E-1,-6.745663285E-1,1.911171556E0,9.046490669E0
1.856748490E-1,-9.091981053E-1,1.441908002E0,9.582792282E0
1.876709950E-1,-5.883750916E-1,1.992574334E0,1.003769016E1
1.896671400E-1,-2.867056429E-1,2.461838007E0,9.779116631E0
1.916632860E-1,-4.207809567E-1,1.652597666E0,9.180566788E0
1.936594320E-1,-5.069721937E-1,1.729212165E0,9.788693428E0
1.956555780E-1,-2.914940715E-1,2.236783028E0,9.879673004E0
1.976517240E-1,-1.622071713E-1,2.729988575E0,9.803058624E0
1.996478700E-1,-1.861491799E-1,2.725200176E0,9.261969566E0
2.016440150E-1,-3.585317135E-1,2.212841034E0,9.094375610E0
2.036402130E-1,-5.261258483E-1,2.208052635E0,9.568427086E0
2.056364110E-1,-4.399345517E-1,2.428318977E0,9.917980194E0
2.076326090E-1,-3.968389332E-1,2.246359825E0,9.678560257E0
2.096288070E-1,-2.579752207E-1,2.610278368E0,9.654618263E0
2.116250050E-1,-2.244564146E-1,2.509721994E0,9.127894402E0
2.136212030E-1,-1.717839688E-1,2.246359825E0,9.601945877E0
2.156174010E-1,-2.483984232E-1,2.351704597E0,9.779116631E0
2.176135990E-1,-1.095347255E-1,2.461838007E0,9.827000618E0
2.196097970E-1,-8.978256024E-3,2.428318977E0,9.477447510E0
2.216059950E-1,-4.728548229E-2,2.179322004E0,9.601945877E0
2.236021930E-1,1.394622475E-1,2.691681147E0,1.014303589E1
2.255983900E-1,1.825578809E-1,2.758718967E0,9.688137054E0
2.275945880E-1,7.242459804E-2,2.610278368E0,9.870096207E0
2.295907860E-1,3.022679687E-1,3.127425909E0,9.769539833E0
2.315869840E-1,2.112883031E-1,2.691681147E0,9.415198326E0
2.335831820E-1,8.200141042E-2,2.504933596E0,9.817423820E0
2.355793800E-1,2.352303118E-1,2.792237759E0,1.003290176E1
2.375755780E-1,4.171896577E-1,3.290231705E0,9.908403397E0
2.395717760E-1,5.129576921E-1,3.060388327E0,9.673771858E0
2.415679740E-1,4.794389009E-1,3.036446333E0,9.702502251E0
2.435641720E-1,3.501519859E-1,2.792237759E0,9.463082314E0
2.455603700E-1,1.681926697E-1,2.174533606E0,9.578003883E0
2.475565680E-1,1.969230920E-1,2.299032211E0,1.046864700E1
2.495527650E-1,3.022679687E-1,2.351704597E0,1.046864700E1
2.515489630E-1,3.597288132E-1,2.801814556E0,1.017176628E1
2.535451610E-1,3.118447661E-1,2.940678120E0,9.879673004E0
2.555413590E-1,-9.516951442E-2,2.552817583E0,9.099164009E0
2.575375570E-1,-3.633201122E-1,2.030881643E0,9.300276756E0
2.595337550E-1,-3.633201122E-1,2.270301819E0,1.033457184E1
2.615299530E-1,-1.286883354E-1,2.792237759E0,1.035372543E1
2.635261510E-1,-3.489548862E-1,2.131438017E0,9.319430351E0
2.655223490E-1,-5.404910445E-1,2.030881643E0,1.042076302E1
2.675185470E-1,-3.010708690E-1,2.739565372E0,1.066018295E1
2.695147450E-1,-3.298012912E-1,2.548029184E0,9.467870712E0
2.715109430E-1,-4.351461530E-1,2.188898802E0,9.022548676E0
2.735071400E-1,-6.602011323E-1,1.528099179E0,9.376891136E0
2.755033380E-1,-4.303577542E-1,2.251148224E0,1.052131939E1
2.774995360E-1,-1.861491799E-1,2.083554029E0,1.016218948E1
2.794957340E-1,-1.574187577E-1,1.992574334E0,9.712079048E0
2.814919320E-1,-5.686229095E-2,2.394800186E0,9.937133789E0
2.834881300E-1,-1.286883354E-1,2.188898802E0,9.726444244E0
2.854843280E-1,-3.010708690E-1,1.734000564E0,9.601945877E0
2.874805260E-1,-1.382651478E-1,2.241571426E0,1.053568459E1
2.894767240E-1,-4.249707982E-2,2.160168409E0,9.645041466E0
2.914729220E-1,-1.622071713E-1,1.930325150E0,9.544485092E0
2.934691200E-1,-2.388216257E-1,1.681328177E0,9.582792282E0
2.954653180E-1,-1.717839688E-1,1.877652645E0,1.000417137E1
2.974615150E-1,3.890577704E-2,2.519298792E0,9.506177902E0
2.994577130E-1,-2.148796022E-1,1.552041292E0,8.869319916E0
3.014539110E-1,-3.393780887E-1,1.561618090E0,9.822212219E0
3.034501090E-1,-1.095347255E-1,2.117072821E0,1.030105305E1
3.054463070E-1,2.454056777E-2,2.160168409E0,9.601945877E0
3.074425050E-1,1.059434265E-1,2.289455414E0,9.999382973E0
3.094387030E-1,2.304419130E-1,2.969408751E0,1.006642151E1
3.114349010E-1,1.490390599E-1,2.864063740E0,9.458293915E0
3.134310990E-1,7.721300423E-2,2.682104349E0,9.985017776E0
3.154272970E-1,1.586158574E-1,2.428318977E0,1.028189945E1
3.174234950E-1,2.687491477E-1,3.156156301E0,1.061708736E1
3.194196930E-1,1.394622475E-1,2.174533606E0,9.424775124E0
3.214158900E-1,8.678980917E-2,2.279878616E0,1.025316906E1
3.234120360E-1,2.448071241E-1,2.888005733E0,1.046864700E1
3.254081820E-1,2.591723204E-1,2.653373957E0,1.012388229E1
3.274043280E-1,3.405751884E-1,2.782660961E0,9.726444244E0
3.294004740E-1,2.112883031E-1,2.380434990E0,9.827000618E0
3.313966200E-1,1.825578809E-1,2.423530579E0,9.927556992E0
3.333927650E-1,2.017114908E-1,2.356492996E0,1.025316906E1
3.353889110E-1,5.225345492E-1,3.031657934E0,1.027232265E1
3.373850570E-1,4.315548539E-1,2.595913172E0,9.520543098E0
3.393812030E-1,2.448071241E-1,2.030881643E0,9.357737541E0
3.413773490E-1,2.831143439E-1,2.050035238E0,9.985017776E0
3.433734950E-1,5.273229480E-1,2.653373957E0,1.034414864E1
3.453696400E-1,3.118447661E-1,2.198475599E0,9.534908295E0
3.473657860E-1,3.214215636E-1,2.442684174E0,9.549273491E0
3.493619320E-1,5.805939063E-2,1.844133854E0,8.773551941E0
3.513580780E-1,-2.436100245E-1,1.240795016E0,9.496601105E0
3.533542240E-1,2.735375464E-1,2.356492996E0,1.065539455E1
3.553503700E-1,5.321113467E-1,2.658162355E0,9.812635422E0
3.573465150E-1,3.214215636E-1,2.006939650E0,8.845377922E0
3.593426610E-1,2.543839216E-1,2.413953781E0,8.941145897E0
3.613388070E-1,-8.559270948E-2,1.135450125E0,8.543708801E0
3.633349530E-1,2.932897024E-2,1.748365760E0,9.199720383E0
3.653310990E-1,2.400187254E-1,1.930325150E0,9.917980194E0
3.673272450E-1,1.729810685E-1,1.494580388E0,9.678560257E0
3.693233900E-1,2.495955229E-1,1.757942557E0,9.348160744E0
3.713195360E-1,4.848258570E-2,1.240795016E0,9.692925453E0
3.733156820E-1,2.735375464E-1,2.275090218E0,9.597157478E0
3.753118280E-1,1.681926697E-1,2.193687201E0,8.749609947E0
3.773079740E-1,-1.813607812E-1,1.485003591E0,8.826224327E0
3.793041200E-1,-8.080431074E-2,1.844133854E0,9.142259598E0
3.813002650E-1,-2.771288455E-1,1.082777739E0,9.041702271E0
3.832964110E-1,-1.095347255E-1,1.820191860E0,9.879673004E0
3.852925570E-1,-1.376665942E-2,1.858499050E0,9.937133789E0
3.872887030E-1,1.203086376E-1,2.471414804E0,9.453505516E0
3.892848490E-1,-1.430535465E-1,2.212841034E0,9.300276756E0
3.912809950E-1,-2.675520480E-1,1.896806240E0,8.768763542E0
3.932771400E-1,-1.526303589E-1,1.920748353E0,9.563638687E0
3.952732860E-1,-1.855506375E-2,2.485780001E0,1.015261269E1
3.972694320E-1,-8.978256024E-3,2.203263998E0,9.180566788E0
3.992655780E-1,-2.483984232E-1,1.240795016E0,9.482235909E0
4.012617240E-1,5.985504249E-4,2.145803213E0,1.040160942E1
4.032578700E-1,-1.855506375E-2,1.978209138E0,9.645041466E0
4.052540150E-1,2.448071241E-1,3.079541922E0,9.865307808E0
4.072502130E-1,2.256535143E-1,2.768295765E0,9.362525940E0
4.092464110E-1,3.890577704E-2,1.992574334E0,9.046490669E0
4.112426090E-1,5.386953708E-3,2.088342428E0,9.539696693E0
4.132388070E-1,1.346738487E-1,2.418742180E0,9.721655846E0
4.152350050E-1,4.369417951E-2,1.408389091E0,9.391256332E0
4.172312030E-1,2.735375464E-1,2.275090218E0,9.688137054E0
4.192274010E-1,4.794389009E-1,2.720411777E0,9.822212219E0
4.212235990E-1,3.214215636E-1,2.275090218E0,9.199720383E0
4.232197970E-1,8.200141042E-2,1.446696401E0,9.161413193E0
4.252159950E-1,3.214215636E-1,2.433107376E0,9.951498985E0
4.272121930E-1,5.273229480E-1,2.667739153E0,9.707290649E0
4.292083900E-1,4.411316514E-1,2.193687201E0,9.032125473E0
4.312045880E-1,2.591723204E-1,1.623867273E0,9.161413193E0
4.332007860E-1,2.879027426E-1,2.131438017E0,9.678560257E0
4.351969840E-1,3.740940094E-1,2.385223389E0,9.779116631E0
4.371931820E-1,3.884592354E-1,2.672527552E0,9.099164009E0
4.391893800E-1,1.681926697E-1,1.963843942E0,8.840589523E0
4.411855780E-1,2.591723204E-1,2.308609009E0,9.041702271E0
4.431817760E-1,3.453635871E-1,2.950255156E0,9.917980194E0
4.451779740E-1,3.118447661E-1,2.423530579E0,9.716867447E0
4.471741720E-1,6.763619930E-2,1.839345455E0,9.745597839E0
4.491703700E-1,3.357867897E-1,2.552817583E0,1.041118622E1
4.511665680E-1,4.028244317E-1,2.495356798E0,9.989806175E0
4.531627650E-1,2.304419130E-1,1.705270171E0,9.405621529E0
4.551589630E-1,1.155202314E-1,2.040458441E0,9.917980194E0
4.571551610E-1,8.200141042E-2,1.872864246E0,9.544485092E0
4.591513590E-1,4.848258570E-2,1.724423766E0,9.721655846E0
4.611475570E-1,1.346738487E-1,2.749142170E0,1.056441498E1
4.631437550E-1,2.543839216E-1,3.247136116E0,1.000895977E1
4.651399530E-1,1.011550203E-1,2.883217335E0,9.113529205E0
4.671361510E-1,-4.249707982E-2,2.361281395E0,8.945934296E0
4.691323490E-1,1.634042710E-1,2.907159328E0,9.980229378E0
4.711285470E-1,-5.207388848E-2,2.002151251E0,9.084798813E0
4.731247450E-1,-1.622071713E-1,1.389235497E0,9.879673004E0
4.751209430E-1,1.634042710E-1,2.749142170E0,1.102410126E1
4.771171400E-1,4.746504724E-1,3.634996653E0,9.803058624E0
4.791133380E-1,1.011550203E-1,1.925536752E0,8.222886086E0
4.811095360E-1,-8.559270948E-2,1.853710651E0,9.549273491E0
4.831057340E-1,1.298854351E-1,2.255936623E0,1.015740108E1
4.851019320E-1,3.118447661E-1,2.370858192E0,9.520543098E0
4.870981300E-1,8.678980917E-2,1.609502077E0,9.300276756E0
4.890943280E-1,5.386953708E-3,1.513733983E0,9.688137054E0
4.910905260E-1,1.681926697E-1,2.399588585E0,1.000895977E1
4.930867240E-1,2.831143439E-1,2.437895775E0,9.520543098E0
4.950829220E-1,2.974795699E-1,2.069188833E0,9.238027573E0
4.970791200E-1,3.022679687E-1,1.868075848E0,1.044949341E1
4.990753180E-1,4.698620737E-1,2.112284422E0,1.263779354E1
5.010715150E-1,4.363432527E-1,2.370858192E0,1.103846741E1
5.030677130E-1,2.400187254E-1,2.792237759E0,9.774328232E0
5.050639110E-1,2.454056777E-2,2.907159328E0,1.013824749E1
5.070601090E-1,-6.643909961E-2,2.648585558E0,1.070327854E1
5.090563070E-1,-1.574187577E-1,2.442684174E0,1.098100567E1
5.110525050E-1,-1.430535465E-1,3.132214308E0,9.855731010E0
5.130487030E-1,-9.516951442E-2,2.859275341E0,1.145984650E1
5.150449010E-1,-5.686229095E-2,2.370858192E0,1.103846741E1
5.170410990E-1,-2.334346622E-2,2.366069794E0,1.083256531E1
5.190372970E-1,-1.143231317E-1,2.413953781E0,1.015740108E1
5.210334950E-1,-6.165069342E-2,2.653373957E0,1.005205631E1
5.230296930E-1,1.346738487E-1,1.604713678E0,1.228824043E1
5.250258900E-1,3.070563674E-1,1.643020868E0,1.104325581E1
5.270220360E-1,2.543839216E-1,2.978985548E0,8.495824814E0
5.290181820E-1,1.298854351E-1,3.323750496E0,8.596381187E0
5.310143280E-1,3.597288132E-1,2.648585558E0,1.077989292E1
5.330104740E-1,5.704185367E-1,1.877652645E0,1.240316200E1
5.350066200E-1,4.985924959E-1,2.935889721E0,8.361749649E0
5.370027650E-1,3.980360329E-1,2.619855165E0,9.424775124E0
5.389989110E-1,4.985924959E-1,2.193687201E0,9.692925453E0
5.409950570E-1,4.650736749E-1,1.748365760E0,9.961075783E0
5.429912030E-1,5.177460909E-1,1.662174582E0,1.015740108E1
5.449873490E-1,6.135141850E-1,1.590348482E0,1.031541824E1
5.469834950E-1,6.039373875E-1,1.738788962E0,9.204508781E0
5.489796400E-1,6.278793812E-1,1.585560083E0,9.510966301E0
5.509757860E-1,7.523778677E-1,1.791461468E0,9.309853554E0
5.529719320E-1,8.050503135E-1,1.700481772E0,9.582792282E0
5.549680780E-1,9.534908533E-1,1.322197914E0,1.023401546E1
5.569642240E-1,1.097142935E0,9.965864420E-1,1.109113979E1
5.589603700E-1,1.054047346E0,2.318185806E0,7.997830868E0
5.609565150E-1,1.111508131E0,2.241571426E0,9.103952408E0
5.629526610E-1,1.283890605E0,1.609502077E0,1.075116253E1
5.649488070E-1,1.331774712E0,2.150591612E0,9.329007149E0
5.669449530E-1,1.322197914E0,1.901594758E0,1.023880386E1
5.689410990E-1,1.394023895E0,2.447472572E0,9.080010414E0
5.709372450E-1,1.274313807E0,2.217629433E0,9.285911560E0
5.729333900E-1,1.293467522E0,2.107496023E0,9.769539833E0
5.749295360E-1,1.317409515E0,1.762730956E0,1.055483818E1
5.769256820E-1,1.250371814E0,2.284667015E0,9.012971878E0
5.789218280E-1,1.106719732E0,2.639008760E0,8.462306023E0
5.809179740E-1,1.183334231E0,1.915959954E0,1.045907021E1
5.829141200E-1,1.073200941E0,1.638232470E0,1.055962658E1
5.849102650E-1,9.534908533E-1,1.197699428E0,1.038245583E1
5.869064110E-1,8.337807655E-1,2.088342428E0,8.084021568E0
5.889025570E-1,6.374561787E-1,2.088342428E0,9.185355186E0
5.908987030E-1,6.230909824E-1,1.801038265E0,9.941922188E0
5.928948490E-1,5.416881442E-1,1.695693374E0,9.961075783E0
5.948909950E-1,4.938040972E-1,1.010951638E0,1.123000336E1
5.968871400E-1,3.597288132E-1,2.246359825E0,7.945158482E0
5.988832860E-1,2.208651006E-1,2.236783028E0,8.720879555E0
6.008794320E-1,2.017114908E-1,1.212064624E0,1.049258900E1
6.028755780E-1,1.777694821E-1,2.002151251E0,8.495824814E0
6.048717240E-1,1.490390599E-1,1.341351509E0,9.841365814E0
6.068678700E-1,1.203086376E-1,2.294243813E0,7.916428089E0
6.088640150E-1,1.921346933E-1,1.489791989E0,1.005205631E1
6.108602130E-1,1.394622475E-1,1.087566137E0,1.048780060E1
6.128564110E-1,2.831143439E-1,9.630676508E-1,1.016218948E1
6.148526090E-1,7.242459804E-2,1.561618090E0,8.170213699E0
6.168488070E-1,1.346738487E-1,1.379658699E0,9.405621529E0
6.188450050E-1,1.538274586E-1,1.365293503E0,9.147047997E0
6.208412030E-1,3.309983909E-1,8.146271110E-1,1.021965027E1
6.228374010E-1,1.825578809E-1,2.188898802E0,8.117541313E0
6.248335990E-1,3.453635871E-1,1.662174582E0,1.012388229E1
6.268297970E-1,4.938040972E-1,9.199720025E-1,1.248456478E1
6.288259950E-1,6.374561787E-1,-6.165069342E-2,1.479736328E1
6.308221930E-1,5.225345492E-1,1.006163239E0,8.802282333E0
6.328183900E-1,1.634042710E-1,1.106719732E0,1.020049667E1
6.348145880E-1,-5.207388848E-2,9.151836038E-1,8.955511093E0
6.368107860E-1,-1.286883354E-1,1.959055543E0,8.859743118E0
6.388069840E-1,-8.559270948E-2,1.930325150E0,1.057399178E1
6.408031820E-1,-1.376665942E-2,4.794389009E-1,1.253244877E1
6.427993800E-1,-2.100912035E-1,5.225345492E-1,1.109113979E1
6.447955780E-1,-4.399345517E-1,2.198475599E0,5.871779442E0
6.467917760E-1,-4.542997777E-1,2.667739153E0,5.977124691E0
6.487879740E-1,6.284779310E-2,-1.813607812E-1,1.642063141E1
6.507841720E-1,3.070563674E-1,1.255160213E0,8.270770073E0
6.527803700E-1,-6.643909961E-2,7.523778677E-1,1.029626465E1
6.547765680E-1,-2.483984232E-1,1.992574334E0,7.289146900E0
6.567727650E-1,-3.824737072E-1,1.049258947E0,9.391256332E0
6.587689630E-1,-2.100912035E-1,1.729212165E0,8.625111580E0
6.607651610E-1,-2.053027898E-1,1.039682031E0,1.000895977E1
6.627613590E-1,-9.995792061E-2,9.870096445E-1,9.261969566E0
6.647575570E-1,-2.292448133E-1,3.693056107E-1,1.140238571E1
6.667537550E-1,-3.776853085E-1,-1.191115379E-1,9.443928719E0
6.687499530E-1,-4.878185987E-1,-1.855506375E-2,1.212543488E1
6.707461510E-1,-4.638765752E-1,1.006163239E0,8.385691643E0
6.727423490E-1,-5.309142470E-1,1.480215192E0,7.724891663E0
6.747385470E-1,-5.165489912E-1,1.020528436E0,9.329007149E0
6.767347450E-1,-4.112041295E-1,1.121084929E0,9.611522675E0
6.787309430E-1,-3.824737072E-1,6.853402257E-1,1.158434486E1
6.807271400E-1,-7.176619768E-1,1.106719732E0,6.326677799E0
6.827233380E-1,-7.703344226E-1,1.155202314E-1,1.365772343E1
6.847195360E-1,-6.075286865E-1,9.582792521E-1,8.854954720E0
6.867157340E-1,-9.953893423E-1,3.597288132E-1,8.792705536E0
6.887119320E-1,-8.421604633E-1,-2.292448133E-1,1.251808357E1
6.907081300E-1,-8.565256596E-1,1.010951638E0,6.058527470E0
6.927043280E-1,-9.714473486E-1,1.873462796E-1,1.029147625E1
6.947005260E-1,-6.649895310E-1,-7.751228213E-1,1.229781723E1
6.966967240E-1,-1.043273449E0,2.783259451E-1,6.997054577E0
6.986929220E-1,-1.167771935E0,-2.436100245E-1,1.096185207E1
7.006891200E-1,-9.044097066E-1,-4.064157307E-1,1.048780060E1
7.026853180E-1,-9.331400990E-1,-4.686649740E-1,9.415198326E0
7.046815150E-1,-9.427168965E-1,-1.321000814E0,1.251329517E1
7.066777130E-1,-1.220444322E0,-2.579752207E-1,7.566874504E0
7.086739110E-1,-1.584362984E0,4.369417951E-2,8.265981674E0
7.106701090E-1,-1.445499301E0,3.166331649E-1,9.889249802E0
7.126663070E-1,-1.301847219E0,-1.043273449E0,1.088044930E1
7.146625050E-1,-1.062427044E0,-7.559691668E-1,1.156040287E1
7.166587030E-1,-1.100734234E0,7.475894690E-1,7.609970093E0
7.186549010E-1,-1.167771935E0,-4.590881765E-1,1.158913326E1
7.206510990E-1,-1.028908134E0,-2.531868219E-1,9.080010414E0
7.226472970E-1,-1.153406620E0,-1.574187577E-1,8.797493935E0
7.246434950E-1,-1.067215443E0,7.571662664E-1,6.982689381E0
7.266396930E-1,-7.080851793E-1,2.735375464E-1,1.045907021E1
7.286358380E-1,-2.196680009E-1,-3.776853085E-1,1.315494156E1
7.306319840E-1,-2.196680009E-1,-2.819172442E-1,7.107187748E0
7.326281300E-1,-3.250128925E-1,5.985504249E-4,9.534908295E0
7.346242760E-1,8.200141042E-2,1.777694821E-1,1.169447803E1
7.366204220E-1,5.985504249E-4,7.242459804E-2,7.523778915E0
7.386165680E-1,6.763619930E-2,-1.234809518E0,1.157955647E1
7.406127130E-1,1.490390599E-1,-3.058592677E-1,9.879673004E0
7.426088590E-1,-8.978256024E-3,7.721300423E-2,8.591592789E0
7.446050050E-1,-1.478419602E-1,9.636662155E-2,7.969100475E0
7.466011510E-1,-9.038111567E-2,2.256535143E-1,9.075222015E0
7.485972970E-1,1.634042710E-1,-1.608304977E0,1.346139908E1
7.505934430E-1,3.645172119E-1,-1.526902080E0,1.111508179E1
7.525895880E-1,1.203086376E-1,-3.537433147E-1,8.615534782E0
7.545857340E-1,-1.047463268E-1,-3.250128925E-1,9.352949142E0
7.565818800E-1,-2.914940715E-1,8.529343605E-1,6.542156219E0
7.585780260E-1,-1.622071713E-1,3.405751884E-1,9.601945877E0
7.605741720E-1,2.932897024E-2,-9.714473486E-1,1.107677460E1
7.625703180E-1,-4.189853091E-3,-1.225232720E0,1.193868637E1
7.645664630E-1,-2.100912035E-1,-9.522937536E-1,8.558073997E0
7.665626090E-1,-2.675520480E-1,-3.292027488E-2,8.696937561E0
7.685587550E-1,-2.962824702E-1,-2.148796022E-1,9.783905029E0
7.705549010E-1,-1.622071713E-1,-3.106476665E-1,9.951498985E0
7.725510470E-1,-1.430535465E-1,6.470330358E-1,7.997830868E0
7.745471930E-1,-6.165069342E-2,-1.717839688E-1,1.304480839E1
7.765433380E-1,-1.286883354E-1,-2.196680009E-1,8.476671219E0
7.785394840E-1,-1.334767491E-1,-2.000954151E0,1.124915695E1
7.805356300E-1,-3.872621357E-1,9.151836038E-1,6.336254597E0
7.825317760E-1,-4.734533727E-1,1.178545833E0,8.754398346E0
7.845279220E-1,-3.010708690E-1,-4.728548229E-2,1.270961952E1
7.865240680E-1,-2.867056429E-1,-1.047463268E-1,8.524555206E0
7.885202130E-1,-4.255693555E-1,-1.593939781E0,1.137844372E1
7.905163590E-1,-4.782418013E-1,-1.043273449E0,1.162744045E1
7.925125050E-1,-5.404910445E-1,6.763619930E-2,8.649053574E0
7.945086510E-1,-7.128735781E-1,2.454056777E-2,8.965087891E0
7.965047970E-1,-6.937199235E-1,2.256535143E-1,9.573215485E0
7.985009430E-1,-8.277952671E-1,1.111508131E0,7.260416508E0
8.004970880E-1,-7.990648150E-1,9.199720025E-1,9.238027573E0
8.024932340E-1,-3.968389332E-1,-1.359308004E0,1.562575722E1
8.044893800E-1,-5.261258483E-1,-3.298012912E-1,8.371326447E0
8.064855260E-1,-8.086416125E-1,1.729810685E-1,8.658630371E0
8.084816720E-1,-7.846996188E-1,7.523778677E-1,8.965087891E0
8.104778180E-1,-7.799112201E-1,7.428010702E-1,8.117541313E0
8.124740150E-1,-6.554127336E-1,-3.154360652E-1,1.038245583E1
8.144702130E-1,-2.819172442E-1,-6.165069342E-2,1.146463490E1
8.164664110E-1,-4.064157307E-1,3.932476342E-1,7.619546890E0
8.184626090E-1,-3.489548862E-1,-1.397615194E0,1.212064648E1
8.204588070E-1,-1.526303589E-1,-1.206079125E0,1.191474438E1
8.224550050E-1,-4.590881765E-1,4.938040972E-1,6.235698223E0
8.244512030E-1,-6.171054840E-1,2.639607489E-1,7.408857346E0
8.264474010E-1,-2.771288455E-1,-1.392826796E0,1.049737740E1
8.284435990E-1,1.107318252E-1,-2.182913303E0,1.302565479E1
8.304397970E-1,-2.962824702E-1,-1.670554280E0,1.166095924E1
8.324359950E-1,-5.740098357E-1,4.369417951E-2,7.437587738E0
8.344321930E-1,-7.128735781E-1,-3.681085110E-1,8.768763542E0
8.364283900E-1,-4.830302000E-1,-1.943493247E0,1.355716705E1
8.384245880E-1,-7.511807680E-1,-9.038111567E-2,5.062539577E0
8.404207860E-1,-7.655459642E-1,-2.527678490E0,1.232175922E1
8.424169840E-1,-8.134300113E-1,9.103952050E-1,6.250063419E0
8.444131820E-1,-8.517372608E-1,4.171896577E-1,8.792705536E0
8.464093800E-1,-3.681085110E-1,-1.498171687E0,1.616684723E1
8.484055780E-1,-3.681085110E-1,7.284358740E-1,6.130353451E0
8.504017760E-1,-6.506243348E-1,3.309983909E-1,8.754398346E0
8.523979740E-1,-3.489548862E-1,-3.968389332E-1,1.094748688E1
8.543941720E-1,-7.601590455E-2,-1.780687571E0,1.498890018E1
8.563903700E-1,-3.154360652E-1,1.039682031E0,4.693832397E0
8.583865680E-1,-4.878185987E-1,7.242459804E-2,8.716091156E0
8.603827650E-1,-2.436100245E-1,-3.393780887E-1,9.702502251E0
8.623789630E-1,-1.430535465E-1,-2.244564146E-1,1.230739403E1
8.643751610E-1,-1.095347255E-1,1.054047346E0,7.202955723E0
8.663713590E-1,-1.813607812E-1,-1.478419602E-1,9.597157478E0
8.683675570E-1,-8.559270948E-2,-1.340154409E0,1.122042656E1
8.703637550E-1,8.200141042E-2,3.693056107E-1,8.907627106E0
8.723599530E-1,1.298854351E-1,3.597288132E-1,1.093791008E1
8.743561510E-1,3.166331649E-1,-8.852560520E-1,1.033936024E1
8.763523490E-1,3.645172119E-1,-1.282693505E0,1.068412495E1
8.783485470E-1,2.543839216E-1,-6.602011323E-1,9.080010414E0
8.803447450E-1,1.346738487E-1,7.667431235E-1,6.839036942E0
8.823409430E-1,3.214215636E-1,-5.692214370E-1,1.162744045E1
8.843371400E-1,5.847837925E-1,-5.404910445E-1,1.043991661E1
8.863333380E-1,4.219780564E-1,6.853402257E-1,6.968324184E0
8.883295360E-1,2.400187254E-1,7.763199210E-1,8.500613213E0
8.903257340E-1,5.608417392E-1,-9.762357473E-1,1.259469795E1
8.923219320E-1,7.428010702E-1,-1.014542937E0,1.116296577E1
8.943181300E-1,4.938040972E-1,-4.303577542E-1,7.351396084E0
8.963143280E-1,5.033808947E-1,-6.410474777E-1,1.113423538E1
8.983105260E-1,5.895721912E-1,-6.410474777E-1,1.070806694E1
9.003067240E-1,4.698620737E-1,-6.218938828E-1,6.910863400E0
9.023029220E-1,5.129576921E-1,-7.176619768E-1,9.750386238E0
9.042991200E-1,5.225345492E-1,-3.393780887E-1,1.098579407E1
9.062953180E-1,6.997054219E-1,4.363432527E-1,8.898050308E0
9.082915150E-1,7.428010702E-1,1.825578809E-1,9.252392769E0
9.102877130E-1,6.709750295E-1,-1.402403593E0,1.278623390E1
9.122839110E-1,4.985924959E-1,-5.740098357E-1,8.012195587E0
9.142801090E-1,2.926911712E-1,1.279102206E0,7.088034153E0
9.162763070E-1,5.943605900E-1,-1.072003841E0,1.420360184E1
9.182725050E-1,5.895721912E-1,-8.080431074E-2,9.539696693E0
9.202687030E-1,1.681926697E-1,3.501519859E-1,6.786364555E0
9.222649010E-1,2.735375464E-1,-6.643909961E-2,1.041597462E1
9.242610990E-1,4.554968774E-1,-1.852513552E0,1.426585102E1
9.262572970E-1,3.597288132E-1,1.216853023E0,7.250839710E0
9.282534950E-1,1.634042710E-1,1.959055543E0,7.044938564E0
9.302496400E-1,2.879027426E-1,4.746504724E-1,9.707290649E0
9.322457860E-1,3.693056107E-1,-8.421604633E-1,1.193389797E1
9.342419320E-1,4.650736749E-1,3.980360329E-1,9.491812706E0
9.362380780E-1,5.847837925E-1,1.437119603E0,9.118317604E0
9.382342240E-1,5.991489887E-1,1.647809267E0,8.749609947E0
9.402303700E-1,4.602852762E-1,4.028244317E-1,9.649829865E0
9.422265150E-1,5.847837925E-1,-1.196502328E0,1.260427475E1
9.442226610E-1,4.650736749E-1,1.586158574E-1,9.348160744E0
9.462188070E-1,2.352303118E-1,1.398812294E0,8.088809967E0
9.482149530E-1,2.495955229E-1,9.870096445E-1,8.596381187E0
9.502110990E-1,2.926911712E-1,-6.165069342E-2,9.889249802E0
9.522072450E-1,4.938040972E-1,-1.622071713E-1,1.048301220E1
9.542033900E-1,3.645172119E-1,-3.920505345E-1,1.074637413E1
9.561995360E-1,4.171896577E-1,-2.483984232E-1,9.688137054E0
9.581956820E-1,3.022679687E-1,-5.931634903E-1,1.013345909E1
9.601918280E-1,3.693056107E-1,-9.475052953E-1,1.009994030E1
9.621879740E-1,4.315548539E-1,-8.661024570E-1,9.673771858E0
9.641841200E-1,3.740940094E-1,9.247604012E-1,7.207744122E0
9.661802650E-1,4.171896577E-1,1.226429820E0,7.997830868E0
9.681764110E-1,7.380126715E-1,-2.867056429E-1,1.088523769E1
9.701725570E-1,9.391255975E-1,-5.117605925E-1,1.081341171E1
9.721687030E-1,8.720879555E-1,-1.340154409E0,1.220683765E1
9.741648490E-1,7.140706778E-1,-7.990648150E-1,9.199720383E0
9.761609950E-1,5.225345492E-1,-2.292448133E-1,8.481459618E0
9.781571400E-1,5.177460909E-1,-5.979518890E-1,9.745597839E0
9.801532860E-1,4.794389009E-1,3.693056107E-1,8.213309288E0
9.821494320E-1,7.619546652E-1,-2.819172442E-1,1.099058247E1
9.841455780E-1,7.715315223E-1,-2.148796022E-1,1.074637413E1
9.861417240E-1,6.949170232E-1,-7.122749835E-2,9.185355186E0
9.881378700E-1,5.704185367E-1,5.368997455E-1,8.175002098E0
9.901340150E-1,6.709750295E-1,-7.128735781E-1,1.217810726E1
9.921301610E-1,6.039373875E-1,-1.033696532E0,9.688137054E0
9.941263070E-1,4.842272997E-1,4.411316514E-1,7.380126953E0
9.961224530E-1,5.560533404E-1,3.262099922E-1,8.902838707E0
9.981185990E-1,6.566098332E-1,-2.067991734E0,1.341830349E1
1.000114745E0,7.715315223E-1,-1.105522633E0,1.056441498E1
1.002110890E0,4.842272997E-1,3.890577704E-2,7.188590527E0
1.004107036E0,2.448071241E-1,5.464765429E-1,7.945158482E0
1.006103182E0,3.070563674E-1,-2.388216257E-1,9.702502251E0
1.008099328E0,5.560533404E-1,-5.069721937E-1,1.113423538E1
1.010095474E0,6.422445774E-1,-1.855506375E-2,9.496601105E0
1.012091620E0,5.081692934E-1,-3.154360652E-1,1.008557510E1
1.014087818E0,4.507084787E-1,-2.962824702E-1,9.645041466E0
1.016084015E0,2.926911712E-1,-3.633201122E-1,8.605957985E0
1.018080213E0,2.687491477E-1,-6.314706802E-1,9.242815971E0
1.020076411E0,2.400187254E-1,-1.143231317E-1,8.864531517E0
1.022072609E0,4.602852762E-1,-7.846996188E-1,1.103846741E1
1.024068807E0,5.177460909E-1,-6.841431260E-1,1.042076302E1
1.026065005E0,6.039373875E-1,-4.399345517E-1,1.057399178E1
1.028061203E0,5.943605900E-1,2.256535143E-1,8.562862396E0
1.030057401E0,6.470330358E-1,-1.038484931E0,1.112944698E1
1.032053599E0,5.416881442E-1,-9.995792061E-2,9.348160744E0
1.034049797E0,5.177460909E-1,2.304419130E-1,9.041702271E0
1.036045995E0,5.033808947E-1,2.208651006E-1,8.634688377E0
1.038042193E0,5.991489887E-1,8.200141042E-2,9.295488358E0
1.040038390E0,6.613982320E-1,-4.255693555E-1,1.060751057E1
1.042034588E0,6.039373875E-1,-1.038484931E0,1.110550499E1
1.044030786E0,5.416881442E-1,-1.038484931E0,1.017176628E1
1.046026984E0,4.507084787E-1,-3.489548862E-1,9.161413193E0
1.048023182E0,5.081692934E-1,1.250970364E-1,8.696937561E0
1.050019380E0,6.135141850E-1,-3.441664875E-1,1.022443867E1
1.052015578E0,6.278793812E-1,-5.644330382E-1,9.649829865E0
1.054011776E0,5.368997455E-1,-5.835866928E-1,9.525331497E0
1.056007974E0,6.135141850E-1,-1.014542937E0,1.038724422E1
1.058004172E0,6.422445774E-1,-1.052850246E0,1.014782429E1
1.060000370E0,4.985924959E-1,3.405751884E-1,8.232462883E0
1.061996568E0,5.512649417E-1,6.284779310E-2,9.376891136E0
1.063992765E0,6.374561787E-1,-7.990648150E-1,1.152209568E1
1.065988963E0,4.554968774E-1,-5.357026458E-1,9.965864182E0
1.067985161E0,4.267664552E-1,-4.542997777E-1,9.147047997E0
1.069981359E0,3.884592354E-1,-3.106476665E-1,9.281123161E0
1.071977557E0,2.926911712E-1,-5.686229095E-2,9.089587212E0
1.073973755E0,3.262099922E-1,-2.292448133E-1,9.879673004E0
1.075969953E0,4.794389009E-1,-4.830302000E-1,1.067933655E1
1.077966151E0,4.315548539E-1,-9.235633016E-1,1.075116253E1
1.079962349E0,2.208651006E-1,6.763619930E-2,8.337807655E0
1.081958547E0,1.969230920E-1,7.721300423E-2,8.754398346E0
1.083954745E0,2.735375464E-1,-1.435922503E0,1.284369469E1
1.085950943E0,4.076128304E-1,4.076128304E-1,8.692149162E0
1.087947140E0,-5.686229095E-2,4.842272997E-1,7.882909298E0
1.089943338E0,1.538274586E-1,-7.176619768E-1,1.043033981E1
1.091939536E0,2.208651006E-1,-4.686649740E-1,9.793481827E0
1.093935734E0,2.256535143E-1,-1.095347255E-1,9.123106003E0
1.095931932E0,3.309983909E-1,7.242459804E-2,9.477447510E0
1.097928130E0,3.214215636E-1,-1.038484931E0,1.121084976E1
1.099924328E0,3.836708367E-1,-1.206079125E0,1.113423538E1
1.101920526E0,3.836708367E-1,-6.410474777E-1,1.001374817E1
1.103916724E0,3.740940094E-1,2.932897024E-2,9.190143585E0
1.105912922E0,2.735375464E-1,-5.404910445E-1,9.874884605E0
1.107909120E0,1.538274586E-1,5.656301379E-1,7.748833656E0
1.109905318E0,2.454056777E-2,1.068412542E0,6.748057365E0
1.111901515E0,1.442506462E-1,-9.139865041E-1,1.029626465E1
1.113897713E0,3.645172119E-1,-1.675342679E0,1.223077965E1
1.115893911E0,4.698620737E-1,-7.559691668E-1,1.075595093E1
1.117890109E0,4.171896577E-1,-8.469488621E-1,1.009994030E1
1.119886307E0,2.974795699E-1,-1.813607812E-1,8.352172852E0
1.121882505E0,3.118447661E-1,-2.388216257E-1,9.477447510E0
1.123878703E0,4.650736749E-1,-6.218938828E-1,1.111029339E1
1.125874901E0,4.363432527E-1,-4.734533727E-1,9.697713852E0
1.127871099E0,2.687491477E-1,-7.122749835E-2,8.869319916E0
1.129867245E0,2.495955229E-1,-2.340332121E-1,9.324218750E0
1.131863390E0,2.400187254E-1,-6.793547273E-1,9.889249802E0
1.133859536E0,3.836708367E-1,-1.028908134E0,1.057399178E1
1.135855682E0,2.591723204E-1,6.763619930E-2,8.419210434E0
1.137851828E0,1.203086376E-1,-4.686649740E-1,9.554061890E0
1.139847974E0,1.729810685E-1,-8.038532138E-1,1.132098293E1
1.141844120E0,1.729810685E-1,-1.234809518E0,1.019570827E1
1.143840265E0,1.059434265E-1,-1.382651478E-1,8.572439194E0
1.145836411E0,9.636662155E-2,2.256535143E-1,9.477447510E0
1.147832557E0,1.873462796E-1,-1.430535465E-1,1.105762100E1
1.149828703E0,8.678980917E-2,-1.855506375E-2,8.562862396E0
1.151824849E0,4.848258570E-2,-9.570821524E-1,9.769539833E0
1.153820995E0,5.386953708E-3,-2.867056429E-1,9.601945877E0
1.155817140E0,9.636662155E-2,3.453635871E-1,1.072243214E1
1.157813286E0,2.543839216E-1,4.848258570E-2,9.894038200E0
1.159809432E0,4.848258570E-2,2.926911712E-1,8.084021568E0
1.161805578E0,1.107318252E-1,-4.926069975E-1,1.019091988E1
1.163801724E0,2.831143439E-1,-2.436100245E-1,1.049258900E1
1.165797870E0,2.591723204E-1,6.853402257E-1,8.414422035E0
1.167794015E0,3.597288132E-1,4.842272997E-1,8.050502777E0
1.169790161E0,4.411316514E-1,7.242459804E-2,9.108740807E0
1.171786307E0,6.566098332E-1,-5.835866928E-1,1.007120991E1
1.173782453E0,8.864531517E-1,-1.134253025E0,1.138802052E1
1.175778599E0,8.529343605E-1,-1.072003841E0,1.075595093E1
1.177774745E0,7.667431235E-1,-5.500678420E-1,8.572439194E0
1.179770890E0,7.188590765E-1,-4.112041295E-1,9.233239174E0
1.181767036E0,8.002619147E-1,-1.047463268E-1,9.003395081E0
1.183763182E0,7.236474752E-1,-1.220444322E0,1.109592819E1
1.185759328E0,6.805518270E-1,-1.656189084E0,1.123479176E1
1.187755474E0,5.656301379E-1,-9.762357473E-1,9.319430351E0
1.189751620E0,4.554968774E-1,-1.076792240E0,9.060855865E0
1.191747765E0,4.171896577E-1,-1.579574585E0,1.004726696E1
1.193743911E0,5.704185367E-1,-1.024119735E0,9.999382973E0
1.195740057E0,5.943605900E-1,-1.119887829E0,9.501389503E0
1.197736203E0,5.368997455E-1,-1.431134105E0,1.047822380E1
1.199732349E0,3.788824081E-1,-1.541267395E0,1.029626465E1
1.201728495E0,4.938040972E-1,-1.450287700E0,1.038724422E1
1.203724640E0,3.597288132E-1,-1.445499301E0,9.190143585E0
1.205720786E0,2.591723204E-1,-8.948329091E-1,8.993818283E0
1.207716932E0,4.315548539E-1,-7.368155718E-1,1.021007347E1
1.209713078E0,4.985924959E-1,-7.272387743E-1,9.807847023E0
1.211709224E0,4.171896577E-1,-8.277952671E-1,9.261969566E0
1.213705422E0,3.693056107E-1,-1.335366011E0,1.092833328E1
1.215701620E0,3.022679687E-1,-5.931634903E-1,8.687360764E0
1.217697818E0,2.256535143E-1,-9.044097066E-1,9.654618263E0
1.219694015E0,2.926911712E-1,-1.225232720E0,1.143111610E1
1.221690213E0,2.831143439E-1,-1.143829823E0,9.209297180E0
1.223686411E0,7.242459804E-2,-1.100734234E0,9.180566788E0
1.225682609E0,9.636662155E-2,-4.207809567E-1,7.801506042E0
1.227678807E0,7.721300423E-2,-8.996213078E-1,8.596381187E0
1.229675005E0,1.298854351E-1,-1.474229693E0,1.191474438E1
1.231671203E0,2.352303118E-1,-1.234809518E0,1.055004978E1
1.233667401E0,-5.686229095E-2,-7.894880176E-1,6.642712593E0
1.235663599E0,-7.122749835E-2,-9.714473486E-1,8.917203903E0
1.237659797E0,1.825578809E-1,-1.771110654E0,1.259948635E1
1.239655995E0,-6.165069342E-2,-1.660977483E0,8.222886086E0
1.241652193E0,1.496376097E-2,-1.502960086E0,1.023401546E1
1.243648390E0,-1.430535465E-1,-6.985083222E-1,1.034893703E1
1.245644588E0,-5.207388848E-2,-7.128735781E-1,9.726444244E0
1.247640786E0,-3.633201122E-1,-1.124676228E0,7.490260124E0
1.249636984E0,-5.548562407E-1,-1.977012038E0,1.178545761E1
1.251633182E0,-5.883750916E-1,-2.278681517E0,1.310705757E1
1.253629380E0,-7.320271730E-1,-8.086416125E-1,5.512649536E0
1.255625578E0,-8.804676533E-1,-1.033696532E0,9.147047997E0
1.257621776E0,-4.447229803E-1,-1.383249998E0,1.176630402E1
1.259617974E0,-5.069721937E-1,-1.818994761E0,1.030105305E1
1.261614172E0,-7.655459642E-1,-1.455076098E0,8.672995567E0
1.263610370E0,-8.469488621E-1,-1.383249998E0,9.252392769E0
1.265606568E0,-6.889315248E-1,-2.010530949E0,1.074637413E1
1.267602765E0,-6.697779298E-1,-2.374449492E0,1.097142887E1
1.269598963E0,-6.123170853E-1,-3.514089584E0,1.163222885E1
1.271595161E0,-9.187749028E-1,-2.302623510E0,5.977124691E0
1.273591359E0,-6.985083222E-1,-1.728015065E0,1.151251888E1
1.275587557E0,-5.357026458E-1,-1.402403593E0,7.940370083E0
1.277583755E0,-7.799112201E-1,-1.838148355E0,6.982689381E0
1.279579953E0,-2.723404467E-1,-3.494935989E0,1.365293503E1
1.281576151E0,-3.345896900E-1,-3.782240152E0,1.232654762E1
1.283572349E0,-5.404910445E-1,-2.288258314E0,6.791152954E0
1.285568547E0,-6.314706802E-1,-1.167771935E0,7.466318130E0
1.287564745E0,-3.537433147E-1,-1.886032343E0,1.027232265E1
1.289560943E0,-1.861491799E-1,-3.346495390E0,1.144069290E1
1.291557140E0,-5.596446395E-1,-3.413532972E0,1.053089619E1
1.293553338E0,-3.824737072E-1,-2.762310266E0,1.077510452E1
1.295549536E0,-4.399345517E-1,-1.555632591E0,7.600393295E0
1.297545734E0,-3.920505345E-1,-2.082356930E0,7.581239700E0
1.299541932E0,-4.542997777E-1,-2.920327425E0,9.329007149E0
1.301538130E0,-3.681085110E-1,-2.973000050E0,1.125394535E1
1.303534328E0,-9.038111567E-2,-2.800617456E0,9.601945877E0
1.305530526E0,-7.601590455E-2,-3.159747601E0,1.175193882E1
1.307526724E0,-1.095347255E-1,-2.982576847E0,1.059793377E1
1.309522922E0,-3.010708690E-1,-2.379237890E0,7.696161270E0
1.311519120E0,-1.855506375E-2,-2.475006104E0,1.116775417E1
1.313515318E0,-1.286883354E-1,-3.083133221E0,9.539696693E0
1.315511515E0,4.369417951E-2,-1.790264368E0,1.014303589E1
1.317507713E0,-2.771288455E-1,-2.858078241E0,1.081341171E1
1.319503911E0,-1.957259923E-1,-2.331353903E0,4.660313606E0
1.321500109E0,4.028244317E-1,-1.953070045E0,1.221641445E1
1.323496307E0,3.118447661E-1,-2.316988707E0,9.386467934E0
1.325492505E0,4.219780564E-1,-2.240374327E0,7.298723698E0
1.327488703E0,9.822212458E-1,-1.933916450E0,1.123479176E1
1.329484901E0,1.092354536E0,-2.230797529E0,1.103846741E1
1.331481047E0,1.058835745E0,-1.833359957E0,1.087566090E1
1.333477193E0,1.178545833E0,-1.660977483E0,9.405621529E0
1.335473338E0,1.374870300E0,-5.213374496E-1,8.160636902E0
1.337469484E0,1.288679123E0,7.332242727E-1,1.306396198E1
1.339465630E0,1.346139908E0,9.726444483E-1,1.102410126E1
1.341461776E0,7.763199210E-1,4.369417951E-2,6.527791023E0
1.343457922E0,1.873462796E-1,-2.743156672E0,1.110550499E1
1.345454068E0,5.327098817E-2,-1.855506375E-2,1.256117916E1
1.347450213E0,2.448071241E-1,1.154603720E0,9.783905029E0
1.349446359E0,3.932476342E-1,2.227206230E0,6.930016994E0
1.351442505E0,4.076128304E-1,1.738788962E0,7.902062893E0
1.353438651E0,4.507084787E-1,1.202487826E0,8.634688377E0
1.355434797E0,5.273229480E-1,1.197699428E0,5.292382717E0
1.357430943E0,4.890156984E-1,-5.261258483E-1,9.333795547E0
1.359427088E0,6.757634282E-1,-2.087145329E0,1.386841297E1
1.361423234E0,6.853402257E-1,-2.585139275E0,1.199614716E1
1.363419380E0,7.380126715E-1,-2.479794502E0,8.668207169E0
1.365415526E0,8.912416101E-1,-3.217208624E0,9.597157478E0
1.367411672E0,1.087566137E0,-4.179677486E0,1.273356152E1
1.369407818E0,5.704185367E-1,-2.479794502E0,1.326986313E1
1.371403963E0,4.363432527E-1,-1.286883354E-1,6.920440197E0
1.373400109E0,9.157821536E-2,-2.675520480E-1,5.292382717E0
1.375396255E0,-4.686649740E-1,-4.734533727E-1,6.092046261E0
1.377392401E0,-3.537433147E-1,-9.570821524E-1,6.786364555E0
1.379388547E0,-5.835866928E-1,-1.919551253E0,7.428010941E0
1.381384693E0,-1.153406620E0,-7.249044418E0,1.089002609E1
1.383380838E0,-4.303577542E-1,-6.583456039E0,1.744056320E1
1.385376984E0,1.011550203E-1,-1.991377234E0,1.365772343E1
1.387373130E0,-1.669955701E-1,-1.086369038E0,9.855731010E0
1.389369276E0,-2.627636492E-1,-9.953893423E-1,7.830236435E0
1.391365422E0,-4.207809567E-1,-1.689707875E0,7.241262913E0
1.393361568E0,-7.128735781E-1,-2.364872694E0,8.438364029E0
1.395357713E0,-4.542997777E-1,-1.838148355E0,9.496601105E0
1.397353859E0,-4.249707982E-2,-1.416768909E0,1.078468132E1
1.399350005E0,-8.978256024E-3,-1.651400566E0,1.127309895E1
1.401346151E0,1.496376097E-2,-2.058414936E0,1.084214211E1
1.403342297E0,5.985504249E-4,-1.201290727E0,9.788693428E0
1.405338443E0,3.166331649E-1,-1.119887829E0,9.123106003E0
1.407334588E0,2.208651006E-1,-1.632246971E0,9.156624794E0
1.409330734E0,6.470330358E-1,-1.886032343E0,9.343372345E0
1.411326880E0,5.704185367E-1,-2.053626537E0,9.726444244E0
1.413323026E0,5.895721912E-1,-2.077568531E0,9.894038200E0
1.415319224E0,6.230909824E-1,-1.656189084E0,9.257181168E0
1.417315422E0,7.475894690E-1,-2.321777105E0,9.587580681E0
1.419311620E0,3.262099922E-1,-3.370437384E0,1.024838066E1
1.421307818E0,1.825578809E-1,-3.523666382E0,1.106719780E1
1.423304015E0,3.405751884E-1,-2.987365246E0,1.102888966E1
1.425300213E0,1.298854351E-1,-2.671330452E0,9.544485092E0
1.427296411E0,-2.100912035E-1,-2.747945070E0,8.328230858E0
1.429292609E0,-3.824737072E-1,-3.140594006E0,9.199720383E0
1.431288807E0,-3.776853085E-1,-3.073556423E0,9.376891136E0
1.433285005E0,-2.962824702E-1,-3.571550369E0,1.034414864E1
1.435281203E0,-4.207809567E-1,-3.729567766E0,1.119648457E1
1.437277401E0,-3.393780887E-1,-2.958634853E0,9.649829865E0
1.439273599E0,-5.596446395E-1,-2.451063871E0,8.524555206E0
1.441269797E0,-3.154360652E-1,-3.092710018E0,9.764751434E0
1.443265995E0,-2.962824702E-1,-3.169324398E0,1.023880386E1
1.445262193E0,-2.819172442E-1,-2.781463861E0,1.014782429E1
1.447258390E0,-2.244564146E-1,-2.709637880E0,1.018613148E1
1.449254588E0,-9.995792061E-2,-2.690484047E0,9.908403397E0
1.451250786E0,-1.143231317E-1,-2.814982653E0,9.908403397E0
1.453246984E0,-1.855506375E-2,-2.307411909E0,8.553285599E0
1.455243182E0,-8.978256024E-3,-2.269104719E0,8.864531517E0
1.457239380E0,1.538274586E-1,-2.791040659E0,1.018613148E1
1.459235578E0,3.453635871E-1,-2.810194254E0,1.008078671E1
1.461231776E0,4.985924959E-1,-2.623446465E0,9.798270226E0
1.463227974E0,3.788824081E-1,-3.111863613E0,1.064581776E1
1.465224172E0,4.267664552E-1,-3.059191227E0,9.731232643E0
1.467220370E0,5.081692934E-1,-2.963423252E0,9.281123161E0
1.469216568E0,2.400187254E-1,-2.704849482E0,8.692149162E0
1.471212765E0,3.884592354E-1,-2.206855536E0,8.021772385E0
1.473208963E0,2.304419130E-1,-2.738368273E0,9.774328232E0
1.475205161E0,2.735375464E-1,-3.686472178E0,1.137365532E1
1.477201359E0,2.974795699E-1,-3.595492363E0,1.030584145E1
1.479197557E0,6.763619930E-2,-3.030460835E0,8.701725960E0
1.481193755E0,1.586158574E-1,-3.188478231E0,9.458293915E0
1.483189953E0,-1.622071713E-1,-2.896385431E0,9.419986725E0
1.485186151E0,9.636662155E-2,-2.848501444E0,9.309853554E0
1.487182349E0,-9.516951442E-2,-3.174112797E0,1.009994030E1
1.489178547E0,-2.627636492E-1,-2.848501444E0,9.295488358E0
1.491174745E0,-1.191115379E-1,-2.647388458E0,8.677783966E0
1.493170943E0,-2.334346622E-2,-3.178901196E0,1.048780060E1
1.495167140E0,9.636662155E-2,-3.719990969E0,1.140717411E1
1.497163338E0,5.327098817E-2,-3.365648985E0,1.020049667E1
1.499159536E0,-8.978256024E-3,-2.024896145E0,7.677007675E0
1.501155734E0,-1.095347255E-1,-1.704073071E0,7.902062893E0
1.503151932E0,-2.813187055E-2,-2.527678490E0,1.006642151E1
1.505148130E0,-1.047463268E-1,-3.269881010E0,1.176630402E1
1.507144328E0,-7.122749835E-2,-2.929904222E0,9.917980194E0
1.509140526E0,-1.382651478E-1,-2.791040659E0,9.214085579E0
1.511136724E0,-6.643909961E-2,-2.661753654E0,8.998606682E0
1.513132922E0,1.496376097E-2,-2.838924646E0,9.606734276E0
1.515129120E0,-1.813607812E-1,-2.925115824E0,9.405621529E0
1.517125318E0,-1.574187577E-1,-3.806182146E0,1.086608410E1
1.519121515E0,-2.244564146E-1,-3.834912539E0,1.059314537E1
1.521117713E0,-2.100912035E-1,-3.542819977E0,9.731232643E0
1.523113911E0,-3.489548862E-1,-3.164535999E0,9.415198326E0
1.525110109E0,-5.740098357E-1,-2.599504471E0,7.811082840E0
1.527106307E0,-4.638765752E-1,-3.279457808E0,9.372102737E0
1.529102505E0,-3.393780887E-1,-3.863642931E0,1.062187576E1
1.531098651E0,-5.644330382E-1,-3.595492363E0,1.000417137E1
1.533094797E0,-4.351461530E-1,-3.198055029E0,9.290699959E0
1.535090943E0,-4.159925580E-1,-3.437475204E0,9.908403397E0
1.537087088E0,-3.585317135E-1,-3.547608376E0,1.033457184E1
1.539083234E0,-4.112041295E-1,-3.178901196E0,9.343372345E0
1.541079380E0,-3.441664875E-1,-3.427898169E0,9.721655846E0
1.543075526E0,-3.585317135E-1,-3.863642931E0,1.044949341E1
1.545071672E0,-4.303577542E-1,-3.700837374E0,1.035372543E1
