"Time (s)","Acceleration x (m/s^2)","Acceleration y (m/s^2)","Acceleration z (m/s^2)"
1.647292300E-2,1.394622475E-1,1.681926697E-1,9.822212219E0
1.847156900E-2,1.442506462E-1,1.729810685E-1,9.836577415E0
2.047021500E-2,1.394622475E-1,1.490390599E-1,9.822212219E0
2.246886100E-2,1.250970364E-1,1.729810685E-1,9.793481827E0
2.446750700E-2,1.298854351E-1,1.586158574E-1,9.769539833E0
2.646615200E-2,1.298854351E-1,1.538274586E-1,9.740809441E0
2.846479800E-2,1.250970364E-1,1.298854351E-1,9.736021042E0
3.046344400E-2,8.678980917E-2,1.346738487E-1,9.707290649E0
3.246209000E-2,9.636662155E-2,1.346738487E-1,9.692925453E0
3.446073600E-2,6.284779310E-2,1.346738487E-1,9.692925453E0
3.645938200E-2,3.411737457E-2,1.442506462E-1,9.702502251E0
3.845802700E-2,2.932897024E-2,1.394622475E-1,9.683348656E0
4.045667300E-2,5.386953708E-3,1.586158574E-1,9.678560257E0
4.245531900E-2,5.386953708E-3,1.490390599E-1,9.645041466E0
4.445396500E-2,-3.770867735E-2,1.729810685E-1,9.635464668E0
4.645261100E-2,-3.292027488E-2,1.825578809E-1,9.640253067E0
4.845125700E-2,-4.728548229E-2,1.825578809E-1,9.630676270E0
5.044990200E-2,-5.207388848E-2,2.064998895E-1,9.606734276E0
5.244860000E-2,-5.207388848E-2,2.112883031E-1,9.592369080E0
5.444735000E-2,-3.292027488E-2,2.352303118E-1,9.578003883E0
5.644615200E-2,-4.189853091E-3,2.783259451E-1,9.597157478E0
5.844495400E-2,2.932897024E-2,3.884592354E-1,9.606734276E0
6.044375700E-2,3.890577704E-2,4.602852762E-1,9.654618263E0
6.244255900E-2,4.369417951E-2,4.650736749E-1,9.673771858E0
6.444141300E-2,1.975216344E-2,4.315548539E-1,9.707290649E0
6.644031900E-2,-4.189853091E-3,4.554968774E-1,9.740809441E0
6.843922500E-2,-2.334346622E-2,4.746504724E-1,9.774328232E0
7.043813200E-2,-4.728548229E-2,5.129576921E-1,9.759963036E0
7.243703800E-2,-7.122749835E-2,6.087257862E-1,9.736021042E0
7.443594400E-2,-6.165069342E-2,6.422445774E-1,9.731232643E0
7.643485000E-2,-9.038111567E-2,7.092822790E-1,9.721655846E0
7.843375700E-2,-1.238999367E-1,9.295488000E-1,9.692925453E0
8.043266300E-2,-2.100912035E-1,1.097142935E0,9.692925453E0
8.243156900E-2,-3.537433147E-1,1.461061597E0,9.745597839E0
8.443037100E-2,-4.495113790E-1,1.657386184E0,9.827000618E0
8.642917300E-2,-3.585317135E-1,1.633444071E0,9.894038200E0
8.842797500E-2,-2.819172442E-1,1.753154159E0,9.874884605E0
9.042677700E-2,-3.292027488E-2,2.370858192E0,9.855731010E0
9.242557900E-2,3.118447661E-1,2.753930569E0,9.822212219E0
9.442438200E-2,4.602852762E-1,2.878428936E0,9.985017776E0
9.642318400E-2,5.608417392E-1,2.825756550E0,1.018134308E1
9.842198600E-2,5.416881442E-1,2.816179752E0,1.025316906E1
1.004207880E-1,4.842272997E-1,2.715623379E0,1.023401546E1
1.024195900E-1,3.932476342E-1,2.682104349E0,1.021486187E1
1.044183920E-1,2.687491477E-1,2.504933596E0,1.014782429E1
1.064171940E-1,1.681926697E-1,2.433107376E0,1.008078671E1
1.084160480E-1,1.825578809E-1,2.557605982E0,9.941922188E0
1.104149540E-1,1.825578809E-1,2.605489969E0,1.002811337E1
1.124138610E-1,9.636662155E-2,2.519298792E0,1.014782429E1
1.144127670E-1,7.721300423E-2,2.581547976E0,1.009994030E1
1.164116730E-1,4.848258570E-2,2.639008760E0,1.005684471E1
1.184105790E-1,5.386953708E-3,2.773084164E0,9.965864182E0
1.204094860E-1,-8.559270948E-2,2.820968151E0,1.006163311E1
1.224083920E-1,-1.047463268E-1,2.820968151E0,1.009036350E1
1.244072980E-1,-3.770867735E-2,2.964620352E0,1.004726696E1
1.264062040E-1,-8.080431074E-2,3.223194122E0,1.004247856E1
1.284051110E-1,-4.249707982E-2,3.558382273E0,9.759963036E0
1.304039650E-1,-1.574187577E-1,3.577535868E0,9.419986725E0
1.324028190E-1,-3.441664875E-1,3.587112665E0,9.333795547E0
1.344015170E-1,-3.154360652E-1,3.639785051E0,8.773551941E0
1.364002150E-1,-2.148796022E-1,3.271078110E0,9.396044731E0
1.383989130E-1,-9.516951442E-2,2.974197149E0,1.025795746E1
1.403976110E-1,4.369417951E-2,2.763507366E0,1.058356857E1
1.423963090E-1,1.017535757E-2,2.480991602E0,1.089002609E1
1.443950070E-1,1.107318252E-1,2.830544949E0,1.057878017E1
1.463937040E-1,1.346738487E-1,2.988562346E0,1.035851383E1
1.483924020E-1,4.848258570E-2,3.175309896E0,1.012867069E1
1.503911000E-1,-8.978256024E-3,3.352480888E0,9.970652580E0
1.523897980E-1,-1.047463268E-1,3.587112665E0,9.913191795E0
1.543884960E-1,-3.770867735E-2,3.797802448E0,9.807847023E0
1.563871940E-1,-1.286883354E-1,3.888782024E0,9.645041466E0
1.583858920E-1,-2.867056429E-1,3.587112665E0,9.453505516E0
1.603845900E-1,-2.867056429E-1,3.496133089E0,9.506177902E0
1.623832880E-1,-9.038111567E-2,3.457825899E0,9.654618263E0
1.643819860E-1,-4.728548229E-2,3.467402697E0,9.769539833E0
1.663806840E-1,7.721300423E-2,3.017292738E0,9.994594574E0
1.683793820E-1,7.721300423E-2,2.964620352E0,1.004247856E1
1.703780790E-1,1.107318252E-1,3.486556292E0,9.965864182E0
1.723767770E-1,8.200141042E-2,3.510498285E0,9.233239174E0
1.743754750E-1,5.386953708E-3,3.453037500E0,8.921992302E0
1.763741730E-1,4.848258570E-2,3.682880878E0,9.434351921E0
1.783728710E-1,-1.376665942E-2,3.548805475E0,9.132682800E0
1.803715690E-1,-8.080431074E-2,3.472191095E0,9.123106003E0
1.823702670E-1,1.346738487E-1,3.611054659E0,9.309853554E0
1.843689650E-1,2.017114908E-1,3.601477861E0,9.214085579E0
1.863676630E-1,2.017114908E-1,3.577535868E0,9.070432663E0
1.883663610E-1,3.932476342E-1,3.668515444E0,9.745597839E0
1.903650590E-1,4.267664552E-1,3.658938646E0,9.190143585E0
1.923637570E-1,3.740940094E-1,3.534440279E0,9.285911560E0
1.943624540E-1,3.357867897E-1,3.625419855E0,9.510966301E0
1.963611520E-1,4.124012291E-1,3.850474834E0,9.582792282E0
1.983598500E-1,4.890156984E-1,3.998915434E0,9.482235909E0
2.003585480E-1,3.645172119E-1,3.711611271E0,9.453505516E0
2.023572460E-1,3.501519859E-1,3.773860455E0,9.946710587E0
2.043559440E-1,4.890156984E-1,4.003703594E0,1.021965027E1
2.063546420E-1,5.656301379E-1,4.042010784E0,9.850942612E0
2.083533400E-1,4.985924959E-1,3.721188068E0,1.086608410E1
2.103520380E-1,7.571662664E-1,3.481767893E0,1.201530170E1
2.123507360E-1,6.422445774E-1,4.008491993E0,1.140238571E1
2.143494340E-1,-1.095347255E-1,5.358821869E0,7.231686115E0
2.163481320E-1,-2.388216257E-1,4.334103584E0,8.031349182E0
2.183468290E-1,-3.489548862E-1,3.510498285E0,1.013824749E1
2.203455270E-1,1.017535757E-2,3.855263233E0,1.098579407E1
2.223442250E-1,2.932897024E-2,3.529651880E0,9.640253067E0
2.243429230E-1,-2.813187055E-2,3.098695517E0,1.080862331E1
2.263416210E-1,4.369417951E-2,3.443460703E0,1.047822380E1
2.283403190E-1,-4.728548229E-2,3.347692490E0,9.937133789E0
2.303390170E-1,-2.388216257E-1,3.812167645E0,9.506177902E0
2.323377150E-1,-1.813607812E-1,4.310161591E0,8.921992302E0
2.343364130E-1,-1.765723825E-1,3.740341663E0,9.209297180E0
2.363351110E-1,-1.717839688E-1,3.467402697E0,9.841365814E0
2.383338090E-1,-1.861491799E-1,3.840898037E0,9.309853554E0
2.403325070E-1,-3.770867735E-2,2.801814556E0,1.084214211E1
2.423312040E-1,-4.728548229E-2,3.362057686E0,9.424775124E0
2.443299020E-1,-1.909375787E-1,3.611054659E0,8.400056839E0
2.463286000E-1,-8.080431074E-2,2.749142170E0,9.812635422E0
2.483272980E-1,5.386953708E-3,2.820968151E0,1.047343540E1
2.503259960E-1,-2.813187055E-2,2.916736126E0,9.252392769E0
2.523246940E-1,-1.478419602E-1,2.777872562E0,9.726444244E0
2.543233920E-1,-7.122749835E-2,2.562394381E0,1.053568459E1
2.563220900E-1,-4.728548229E-2,3.031657934E0,9.103952408E0
2.583207880E-1,-1.478419602E-1,3.093907118E0,9.530119896E0
2.603194860E-1,-2.148796022E-1,2.533663988E0,9.879673004E0
2.623181840E-1,-2.579752207E-1,2.820968151E0,1.024838066E1
2.643168820E-1,-3.633201122E-1,2.998139143E0,9.525331497E0
2.663156320E-1,-3.106476665E-1,2.758718967E0,9.424775124E0
2.683144340E-1,-3.106476665E-1,3.050811529E0,9.640253067E0
2.703132360E-1,-3.824737072E-1,3.678092480E0,8.136694908E0
2.723120380E-1,-2.388216257E-1,2.227206230E0,1.049258900E1
2.743108400E-1,-3.292027488E-2,1.863287449E0,1.191474438E1
2.763096420E-1,-1.717839688E-1,3.266289711E0,8.457517624E0
2.783084440E-1,-1.765723825E-1,3.184886694E0,8.165425301E0
2.803072460E-1,-3.770867735E-2,2.078765631E0,9.793481827E0
2.823061000E-1,3.890577704E-2,1.485003591E0,1.065060616E1
2.843050070E-1,-5.686229095E-2,2.782660961E0,8.692149162E0
2.863039130E-1,4.369417951E-2,3.026869535E0,8.055291176E0
2.883028190E-1,5.327098817E-2,1.719635367E0,9.759963036E0
2.903017250E-1,1.107318252E-1,1.652597666E0,9.980229378E0
2.923006320E-1,4.848258570E-2,2.361281395E0,9.075222015E0
2.942994860E-1,1.490390599E-1,1.997362733E0,9.338583946E0
2.962983400E-1,4.369417951E-2,1.365293503E0,9.956287384E0
2.982971940E-1,-6.165069342E-2,2.030881643E0,7.504625320E0
3.002960480E-1,-3.292027488E-2,1.944690347E0,8.246828079E0
3.022947980E-1,1.059434265E-1,1.868075848E0,8.625111580E0
3.042935480E-1,2.543839216E-1,1.312621117E0,9.376891136E0
3.062922980E-1,2.926911712E-1,5.752069354E-1,1.015740108E1
3.082910480E-1,3.501519859E-1,1.303044319E0,9.496601105E0
3.102897980E-1,3.309983909E-1,1.499368787E0,9.194931984E0
3.122885480E-1,2.639607489E-1,1.633444071E0,8.146271706E0
3.142872980E-1,1.011550203E-1,1.101931334E0,9.199720383E0
3.162860480E-1,1.777694821E-1,1.322197914E0,9.108740807E0
3.182847980E-1,3.411737457E-2,2.169745207E0,7.748833656E0
3.202835480E-1,1.107318252E-1,1.935113549E0,8.969876289E0
3.222822980E-1,2.400187254E-1,1.145026922E0,9.257181168E0
3.242810480E-1,3.022679687E-1,1.796249866E0,9.218873978E0
3.262797980E-1,4.363432527E-1,2.370858192E0,9.103952408E0
3.282785480E-1,4.985924959E-1,1.915959954E0,9.285911560E0
3.302772980E-1,4.507084787E-1,8.433575630E-1,1.055004978E1
3.322760480E-1,4.124012291E-1,1.389235497E0,1.005205631E1
3.342747980E-1,1.107318252E-1,3.050811529E0,7.202955723E0
3.362735480E-1,1.011550203E-1,1.868075848E0,9.841365814E0
3.382722980E-1,2.932897024E-2,1.781884670E0,9.238027573E0
3.402710480E-1,7.242459804E-2,2.351704597E0,9.113529205E0
3.422697980E-1,1.394622475E-1,2.174533606E0,8.989029884E0
3.442685480E-1,2.208651006E-1,1.130661726E0,1.051174259E1
3.462672980E-1,2.112883031E-1,1.326986313E0,1.034893703E1
3.482660480E-1,1.298854351E-1,1.935113549E0,9.108740807E0
3.502647980E-1,1.490390599E-1,1.580771685E0,1.001374817E1
3.522635480E-1,1.011550203E-1,2.174533606E0,9.487024307E0
3.542622980E-1,1.017535757E-2,2.524087191E0,9.491812706E0
3.562610480E-1,5.386953708E-3,3.017292738E0,9.137471199E0
3.582597980E-1,7.242459804E-2,3.113060713E0,9.381679535E0
3.602585480E-1,2.112883031E-1,2.591124773E0,1.081341171E1
3.622572980E-1,6.284779310E-2,2.495356798E0,9.985017776E0
3.642560480E-1,5.805939063E-2,1.384447098E0,1.047822380E1
3.662547980E-1,2.112883031E-1,8.529343605E-1,1.119648457E1
3.682535480E-1,3.453635871E-1,5.943605900E-1,1.144548130E1
3.702522980E-1,6.997054219E-1,9.678560495E-1,1.111508179E1
3.722510480E-1,8.529343605E-1,1.973420739E0,1.008557510E1
3.742497980E-1,5.368997455E-1,2.969408751E0,9.640253067E0
3.762485480E-1,8.529343605E-1,2.691681147E0,8.931569099E0
3.782472980E-1,6.039373875E-1,2.361281395E0,9.338583946E0
3.802460480E-1,2.687491477E-1,2.974197149E0,9.065644264E0
3.822447980E-1,1.538274586E-1,2.514510393E0,1.026753426E1
3.842435480E-1,7.242459804E-2,7.140706778E-1,1.313578796E1
3.862422980E-1,9.157821536E-2,1.034893632E0,1.180939960E1
3.882410480E-1,1.777694821E-1,2.854486942E0,8.404845238E0
3.902397980E-1,3.549404144E-1,1.753154159E0,1.059793377E1
3.922385480E-1,5.943605900E-1,1.259948611E0,1.222599125E1
3.942372980E-1,7.619546652E-1,9.965864420E-1,1.420360184E1
3.962360480E-1,7.380126715E-1,3.697246075E0,8.524555206E0
3.982347980E-1,6.087257862E-1,3.783437252E0,8.553285599E0
4.002335480E-1,7.188590765E-1,1.734000564E0,1.250850677E1
4.022322980E-1,3.645172119E-1,1.892017841E0,1.160349846E1
4.042310480E-1,3.501519859E-1,3.668515444E0,8.002618790E0
4.062297980E-1,1.538274586E-1,2.332551003E0,1.010472870E1
4.082285480E-1,-3.292027488E-2,1.461061597E0,1.066018295E1
4.102272980E-1,9.157821536E-2,2.208052635E0,8.835801125E0
4.122260480E-1,-7.601590455E-2,2.174533606E0,9.084798813E0
4.142247980E-1,7.721300423E-2,1.360505104E0,1.057878017E1
4.162235480E-1,9.636662155E-2,1.906383157E0,9.391256332E0
4.182222980E-1,1.155202314E-1,1.044470549E0,1.031541824E1
4.202210480E-1,-1.143231317E-1,1.604713678E0,8.869319916E0
4.222197980E-1,-4.728548229E-2,2.088342428E0,8.601169586E0
4.242185480E-1,-1.855506375E-2,1.781884670E0,8.936357498E0
4.262172980E-1,-2.813187055E-2,1.513733983E0,1.005205631E1
4.282160480E-1,-1.382651478E-1,1.858499050E0,9.467870712E0
4.302147980E-1,3.890577704E-2,1.384447098E0,1.029626465E1
4.322135480E-1,1.634042710E-1,2.356492996E0,8.831012726E0
4.342123500E-1,1.155202314E-1,1.279102206E0,1.014782429E1
4.362112040E-1,-3.770867735E-2,1.370081902E0,1.001374817E1
4.382100590E-1,-1.430535465E-1,1.791461468E0,9.367314339E0
4.402089130E-1,-1.095347255E-1,2.117072821E0,9.137471199E0
4.422077670E-1,-6.165069342E-2,6.039373875E-1,1.172799683E1
4.442066210E-1,4.848258570E-2,1.580771685E0,1.009036350E1
4.462054750E-1,1.017535757E-2,3.922300816E0,7.059303761E0
4.482043820E-1,-2.334346622E-2,2.480991602E0,9.975440979E0
4.502033400E-1,-1.717839688E-1,2.040458441E0,1.016697788E1
4.522023500E-1,-2.053027898E-1,1.614290476E0,1.025795746E1
4.542014130E-1,-2.436100245E-1,7.715315223E-1,1.105283260E1
4.562005270E-1,-1.526303589E-1,2.217629433E0,8.136694908E0
4.581996420E-1,-1.191115379E-1,4.985924959E-1,1.014303589E1
4.601987570E-1,-6.165069342E-2,5.895721912E-1,9.941922188E0
4.621978710E-1,-1.478419602E-1,2.715623379E0,7.514202118E0
4.641967770E-1,-4.189853091E-3,1.834557056E0,9.439140320E0
4.661954750E-1,4.848258570E-2,1.006163239E0,1.062666416E1
4.681941730E-1,-3.770867735E-2,1.236006618E0,1.047343540E1
4.701928710E-1,3.890577704E-2,1.638232470E0,9.774328232E0
4.721915690E-1,8.678980917E-2,2.279878616E0,9.147047997E0
4.741902670E-1,2.932897024E-2,2.734776974E0,8.773551941E0
4.761889650E-1,5.327098817E-2,1.911171556E0,1.013345909E1
4.781876630E-1,-9.516951442E-2,1.413177609E0,1.094748688E1
4.801863610E-1,4.369417951E-2,2.677315950E0,8.668207169E0
4.821850590E-1,6.763619930E-2,1.676539779E0,1.043512821E1
4.841837570E-1,3.890577704E-2,8.200141042E-2,1.257075596E1
4.861824540E-1,5.386953708E-3,3.721188068E0,5.943605900E0
4.881811520E-1,5.805939063E-2,2.241571426E0,8.534132004E0
4.901798500E-1,1.634042710E-1,-2.483984232E-1,1.265215874E1
4.921786000E-1,2.639607489E-1,6.470330358E-1,1.109113979E1
4.941774020E-1,-6.643909961E-2,3.443460703E0,6.230909824E0
4.961762040E-1,1.969230920E-1,1.973420739E0,8.558073997E0
4.981750070E-1,4.363432527E-1,4.698620737E-1,1.204882050E1
5.001738090E-1,4.411316514E-1,1.441908002E0,1.000417137E1
5.021726110E-1,4.124012291E-1,2.322974205E0,8.969876289E0
5.041714130E-1,3.549404144E-1,2.816179752E0,8.682572365E0
5.061702150E-1,3.405751884E-1,2.552817583E0,9.578003883E0
5.081690170E-1,2.448071241E-1,1.121084929E0,1.233133602E1
5.101678190E-1,1.394622475E-1,2.581547976E0,9.300276756E0
5.121666210E-1,1.825578809E-1,2.753930569E0,9.046490669E0
5.141654230E-1,3.890577704E-2,1.188122630E0,1.111987019E1
5.161642250E-1,-1.813607812E-1,1.959055543E0,9.290699959E0
5.181630270E-1,-2.005143911E-1,1.695693374E0,9.443928719E0
5.201618290E-1,-1.191115379E-1,2.016516447E0,9.405621529E0
5.221606320E-1,-1.143231317E-1,1.417966008E0,1.043512821E1
5.241594340E-1,2.064998895E-1,1.633444071E0,9.783905029E0
5.261582360E-1,4.315548539E-1,9.343371987E-1,1.016697788E1
5.281570380E-1,3.549404144E-1,1.312621117E0,9.491812706E0
5.301558400E-1,3.980360329E-1,2.773084164E0,7.839813232E0
5.321546420E-1,3.501519859E-1,2.093130827E0,9.477447510E0
5.341532880E-1,5.081692934E-1,5.985504249E-4,1.240316200E1
5.361519340E-1,4.411316514E-1,1.370081902E0,9.333795547E0
5.381505790E-1,2.831143439E-1,1.796249866E0,9.386467934E0
5.401492250E-1,1.634042710E-1,2.203263998E0,9.257181168E0
5.421478710E-1,-7.122749835E-2,1.992574334E0,9.290699959E0
5.441465170E-1,-6.165069342E-2,1.969230920E-1,1.193868637E1
5.461451630E-1,1.496376097E-2,2.078765631E0,7.471106529E0
5.481438610E-1,2.064998895E-1,9.582792521E-1,9.635464668E0
5.501426110E-1,2.160767019E-1,1.197699428E0,1.013824749E1
5.521414130E-1,4.315548539E-1,2.289455414E0,9.831789017E0
5.541402670E-1,4.507084787E-1,1.604713678E0,1.005205631E1
5.561391210E-1,4.411316514E-1,1.068412542E0,1.055962658E1
5.581379750E-1,1.059434265E-1,1.748365760E0,9.429563522E0
5.601368290E-1,1.011550203E-1,2.543240786E0,8.232462883E0
5.621356840E-1,1.538274586E-1,1.949478745E0,1.077989292E1
5.641345380E-1,-5.207388848E-2,1.461061597E0,1.123958015E1
5.661333920E-1,-1.095347255E-1,5.416881442E-1,9.769539833E0
5.681322460E-1,8.200141042E-2,1.221641421E0,8.649053574E0
5.701311000E-1,2.304419130E-1,2.500145197E0,7.121552944E0
5.721299540E-1,-1.478419602E-1,1.580771685E0,9.645041466E0
5.741288090E-1,-2.334346622E-2,5.799953341E-1,1.305438519E1
5.761276630E-1,-2.531868219E-1,1.116296530E0,1.058356857E1
5.781265170E-1,-3.202244639E-1,6.422445774E-1,8.562862396E0
5.801253710E-1,-3.585317135E-1,1.666962981E0,6.934805393E0
5.821242250E-1,-3.968389332E-1,1.135450125E0,8.668207169E0
5.841230790E-1,-1.669955701E-1,3.693056107E-1,1.067933655E1
5.861219340E-1,-1.095347255E-1,3.405751884E-1,1.336084270E1
5.881207880E-1,-4.728548229E-2,2.648585558E0,6.714538574E0
5.901196420E-1,2.783259451E-1,1.212064624E0,9.281123161E0
5.921184960E-1,-2.334346622E-2,1.140238523E0,1.034893703E1
5.941173500E-1,-8.559270948E-2,1.872864246E0,1.115817738E1
5.961159440E-1,6.763619930E-2,1.451484799E0,9.099164009E0
5.981145380E-1,-9.038111567E-2,6.757634282E-1,1.015261269E1
6.001130790E-1,-1.957259923E-1,1.322197914E0,8.926780701E0
6.021115170E-1,2.064998895E-1,1.848922253E0,8.122329712E0
6.041099540E-1,3.932476342E-1,3.645172119E-1,1.202966690E1
6.061083920E-1,4.171896577E-1,1.643020868E0,8.313865662E0
6.081068290E-1,4.938040972E-1,1.317409515E0,8.649053574E0
6.101052670E-1,4.507084787E-1,-4.830302000E-1,1.250850677E1
6.121037570E-1,1.921346933E-1,5.464765429E-1,8.965087891E0
6.141022980E-1,1.107318252E-1,8.002619147E-1,1.014303589E1
6.161008920E-1,1.729810685E-1,2.332551003E0,9.817423820E0
6.180995380E-1,5.416881442E-1,2.811391354E0,6.848613739E0
6.200982360E-1,5.608417392E-1,2.160168409E0,9.491812706E0
6.220969860E-1,5.225345492E-1,7.188590765E-1,1.478299809E1
6.240957880E-1,5.991489887E-1,2.097919226E0,7.638700485E0
6.260946420E-1,6.757634282E-1,1.279102206E0,8.984241486E0
6.280935480E-1,4.411316514E-1,1.944690347E0,9.463082314E0
6.300925070E-1,3.836708367E-1,3.381211281E0,7.729680061E0
6.320915170E-1,4.028244317E-1,3.501519859E-1,1.281496429E1
6.340905790E-1,1.011550203E-1,8.816647530E-1,1.069370174E1
6.360896940E-1,1.442506462E-1,2.294243813E0,7.155071735E0
6.380888610E-1,3.309983909E-1,2.844910145E0,8.237251282E0
6.400880790E-1,7.242459804E-2,3.980360329E-1,1.282454109E1
6.420872980E-1,-7.601590455E-2,4.938040972E-1,9.453505516E0
6.440865170E-1,-3.728969097E-1,7.721300423E-2,8.845377922E0
6.460857360E-1,-2.579752207E-1,1.259948611E0,6.408081055E0
6.480849540E-1,-1.669955701E-1,-3.250128925E-1,1.316451836E1
6.500838610E-1,-3.393780887E-1,-2.388216257E-1,1.097142887E1
6.520826630E-1,-2.579752207E-1,2.327762604E0,7.514202118E0
6.540814650E-1,-4.016273320E-1,1.896806240E0,8.869319916E0
6.560802670E-1,-3.250128925E-1,9.726444483E-1,1.115817738E1
6.580790690E-1,-5.692214370E-1,1.590348482E0,9.894038200E0
6.600778190E-1,-6.506243348E-1,1.499368787E0,9.855731010E0
6.620765690E-1,-6.697779298E-1,2.495356798E0,1.078946972E1
6.640753190E-1,-7.846996188E-1,2.241571426E0,7.983465672E0
6.660740690E-1,-8.325836658E-1,1.647809267E0,1.043512821E1
6.680728190E-1,-7.032967210E-1,2.318185806E0,8.524555206E0
6.700715690E-1,-6.793547273E-1,6.087257862E-1,1.148857689E1
6.720703190E-1,-6.937199235E-1,3.980360329E-1,9.716867447E0
6.740690690E-1,-8.134300113E-1,1.346738487E-1,1.060751057E1
6.760678190E-1,-8.134300113E-1,1.039682031E0,7.279570103E0
6.780665690E-1,-8.182184100E-1,1.203086376E-1,8.993818283E0
6.800653190E-1,-6.793547273E-1,-8.756792545E-1,1.114381218E1
6.820640690E-1,-5.979518890E-1,-2.914940715E-1,1.019570827E1
6.840628190E-1,-5.835866928E-1,-3.298012912E-1,9.343372345E0
6.860615690E-1,-3.010708690E-1,1.465849996E0,7.365761757E0
6.880603190E-1,-1.143231317E-1,9.534908533E-1,9.913191795E0
6.900591210E-1,1.975216344E-2,5.608417392E-1,1.290594387E1
6.920579750E-1,3.453635871E-1,1.203086376E-1,1.051174259E1
6.940568820E-1,1.975216344E-2,5.656301379E-1,7.451952934E0
6.960558400E-1,1.059434265E-1,1.714846969E0,6.384139061E0
6.980548500E-1,2.783259451E-1,-2.675520480E-1,1.312142277E1
7.000539130E-1,3.932476342E-1,-8.978256024E-3,1.111029339E1
7.020530270E-1,5.799953341E-1,1.796249866E0,7.480683327E0
7.040521940E-1,5.464765429E-1,1.398812294E0,1.144548130E1
7.060514130E-1,6.997054219E-1,1.949478745E0,7.547720909E0
7.080506840E-1,6.422445774E-1,-8.086416125E-1,1.299692440E1
7.100500070E-1,5.608417392E-1,-1.238999367E-1,1.177109241E1
7.120493290E-1,4.459200799E-1,3.491344690E0,6.087257862E0
7.140486520E-1,5.608417392E-1,2.016516447E0,1.130182934E1
7.160479750E-1,7.571662664E-1,8.050503135E-1,1.260906315E1
7.180472980E-1,8.050503135E-1,3.165733099E0,6.604405403E0
7.200461520E-1,7.140706778E-1,4.602852762E-1,1.188122559E1
7.220447980E-1,9.247604012E-1,1.791461468E0,1.045907021E1
7.240433400E-1,6.709750295E-1,3.036446333E0,6.197391033E0
7.260418820E-1,8.529343605E-1,1.030105233E0,1.141675091E1
7.280404230E-1,4.507084787E-1,-6.171054840E-1,1.284848309E1
7.300389650E-1,5.081692934E-1,2.715623379E0,5.345055103E0
7.320375070E-1,7.571662664E-1,2.859275341E0,7.298723698E0
7.340360480E-1,8.385691643E-1,-1.206079125E0,1.726817894E1
7.360345900E-1,7.092822790E-1,1.168969035E0,6.834248543E0
7.380331840E-1,6.230909824E-1,2.744353771E0,4.521450043E0
7.400318290E-1,3.453635871E-1,2.256535143E-1,1.175193882E1
7.420305270E-1,3.740940094E-1,-1.162983418E0,1.255160236E1
7.440292770E-1,3.453635871E-1,2.093130827E0,5.311536312E0
7.460280790E-1,3.645172119E-1,6.230909824E-1,1.230739403E1
7.480269340E-1,2.256535143E-1,7.242459804E-2,1.214458847E1
7.500258400E-1,3.501519859E-1,7.763199210E-1,7.930793285E0
7.520247980E-1,5.464765429E-1,2.399588585E0,6.800729752E0
7.540238090E-1,5.895721912E-1,1.441908002E0,1.142632771E1
7.560228710E-1,6.087257862E-1,-2.675520480E-1,1.189080238E1
7.580219860E-1,6.087257862E-1,1.216853023E0,9.405621529E0
7.600211520E-1,6.518214345E-1,2.634220362E0,6.513425827E0
7.620203710E-1,5.991489887E-1,-6.643909961E-2,1.100494766E1
7.640195900E-1,3.405751884E-1,3.890577704E-2,1.076552773E1
7.660188090E-1,2.974795699E-1,1.681926697E-1,1.123958015E1
7.680180270E-1,2.926911712E-1,3.266289711E0,4.775235176E0
7.700172460E-1,3.118447661E-1,6.135141850E-1,1.164180565E1
7.720164650E-1,3.693056107E-1,3.740940094E-1,1.464892292E1
7.740156840E-1,5.225345492E-1,3.342904091E0,7.806294441E0
7.760144860E-1,2.783259451E-1,4.903923512E0,2.998737574E0
7.780131320E-1,6.230909824E-1,2.017114908E-1,1.369124222E1
7.800117770E-1,3.357867897E-1,-2.053626537E0,1.388756657E1
7.820104230E-1,2.017114908E-1,1.111508131E0,5.732915878E0
7.840090690E-1,-1.855506375E-2,2.782660961E0,6.063315868E0
7.860077150E-1,1.017535757E-2,1.063624144E0,1.077031612E1
7.880063610E-1,4.369417951E-2,9.822212458E-1,1.149815369E1
7.900050070E-1,-1.143231317E-1,1.360505104E0,1.016697788E1
7.920037040E-1,-1.430535465E-1,6.949170232E-1,1.026274586E1
7.940024540E-1,1.011550203E-1,1.087566137E0,1.030105305E1
7.960012570E-1,9.636662155E-2,2.097919226E0,8.572439194E0
7.980001110E-1,1.017535757E-2,1.269525409E0,8.921992302E0
7.999990170E-1,2.448071241E-1,5.321113467E-1,1.160349846E1
8.019979750E-1,1.442506462E-1,1.331774712E0,9.716867447E0
8.039969340E-1,2.687491477E-1,1.978209138E0,7.408857346E0
8.059958920E-1,1.346738487E-1,1.341351509E0,9.688137054E0
8.079948500E-1,5.327098817E-2,1.666962981E0,1.009515190E1
8.099938090E-1,1.681926697E-1,-1.574187577E-1,1.342309189E1
8.119927670E-1,1.538274586E-1,3.980360329E-1,9.678560257E0
8.139917250E-1,-1.669955701E-1,2.121861219E0,8.898050308E0
8.159906840E-1,1.969230920E-1,3.299808502E0,5.278017521E0
8.179896420E-1,4.554968774E-1,1.599925280E0,1.033936024E1
8.199886000E-1,5.464765429E-1,-1.909375787E-1,1.519958973E1
8.219875590E-1,3.262099922E-1,1.614290476E0,7.854178905E0
8.239865170E-1,4.890156984E-1,2.375646591E0,7.303512096E0
8.259854750E-1,3.645172119E-1,6.278793812E-1,1.080862331E1
8.279844340E-1,1.825578809E-1,-2.005143911E-1,1.223556805E1
8.299833920E-1,4.602852762E-1,2.533663988E0,8.098387718E0
8.319823500E-1,2.208651006E-1,2.605489969E0,8.007407188E0
8.339813090E-1,2.160767019E-1,3.411737457E-2,1.150773048E1
8.359802670E-1,3.357867897E-1,8.337807655E-1,7.653065681E0
8.379792250E-1,3.788824081E-1,6.566098332E-1,8.160636902E0
8.399781840E-1,2.974795699E-1,-1.287482023E0,1.290594387E1
8.419771420E-1,2.687491477E-1,-8.565256596E-1,1.163701725E1
8.439761000E-1,1.825578809E-1,5.177460909E-1,7.408857346E0
8.459750590E-1,5.985504249E-4,1.255160213E0,5.914875507E0
8.479740170E-1,1.059434265E-1,-2.005143911E-1,9.568427086E0
8.499729750E-1,2.879027426E-1,-7.080851793E-1,1.392587376E1
8.519719340E-1,2.400187254E-1,2.179322004E0,7.557297707E0
8.539708920E-1,2.017114908E-1,6.422445774E-1,1.042076302E1
8.559698500E-1,2.831143439E-1,2.208651006E-1,1.228345203E1
8.579688090E-1,1.921346933E-1,2.586336374E0,6.441599846E0
8.599677670E-1,2.017114908E-1,9.157821536E-2,1.085650730E1
8.619667250E-1,1.442506462E-1,-1.134253025E0,1.226429844E1
8.639656840E-1,2.352303118E-1,-2.531868219E-1,8.711302757E0
8.659646420E-1,5.991489887E-1,2.783259451E-1,9.060855865E0
8.679636000E-1,4.650736749E-1,1.590348482E0,8.447940826E0
8.699622980E-1,6.709750295E-1,-1.191115379E-1,1.239837360E1
8.719609440E-1,6.518214345E-1,8.098387122E-1,8.672995567E0
8.739595900E-1,4.219780564E-1,2.246359825E0,7.327454090E0
8.759582360E-1,7.571662664E-1,-4.399345517E-1,1.275750351E1
8.779567770E-1,6.039373875E-1,1.283890605E0,1.025795746E1
8.799553190E-1,2.352303118E-1,2.016516447E0,7.418434143E0
8.819538610E-1,1.825578809E-1,1.485003591E0,9.137471199E0
8.839524020E-1,4.315548539E-1,-4.064157307E-1,1.236006641E1
8.859509440E-1,3.214215636E-1,-6.362590790E-1,9.783905029E0
8.879495380E-1,2.160767019E-1,2.141014814E0,6.767210960E0
8.899481840E-1,1.921346933E-1,1.609502077E0,8.045714378E0
8.919468820E-1,4.842272997E-1,3.022679687E-1,1.238879681E1
8.939456320E-1,5.512649417E-1,7.140706778E-1,9.812635422E0
8.959444340E-1,5.177460909E-1,1.221641421E0,8.926780701E0
8.979432880E-1,4.890156984E-1,-2.962824702E-1,1.118211937E1
8.999421940E-1,5.321113467E-1,4.554968774E-1,8.380903244E0
9.019411520E-1,4.842272997E-1,-4.351461530E-1,1.005205631E1
9.039401630E-1,4.267664552E-1,4.267664552E-1,9.223662376E0
9.059392250E-1,4.746504724E-1,3.932476342E-1,9.621099472E0
9.079383400E-1,4.267664552E-1,-3.393780887E-1,1.139280891E1
9.099374540E-1,3.118447661E-1,-7.607575655E-1,1.020049667E1
9.119365690E-1,1.538274586E-1,-1.376665942E-2,9.635464668E0
9.139356840E-1,3.453635871E-1,1.001374841E0,9.463082314E0
9.159347980E-1,3.884592354E-1,1.446696401E0,9.089587212E0
9.179339130E-1,8.002619147E-1,6.566098332E-1,9.563638687E0
9.199328190E-1,7.428010702E-1,2.256535143E-1,1.002332497E1
9.219317250E-1,5.704185367E-1,-1.909375787E-1,1.103367901E1
9.239306320E-1,3.405751884E-1,1.403600693E0,8.352172852E0
9.259293820E-1,3.836708367E-1,1.346139908E0,9.151836395E0
9.279281320E-1,3.309983909E-1,4.076128304E-1,1.038724422E1
9.299268820E-1,2.448071241E-1,7.571662664E-1,9.242815971E0
9.319256320E-1,5.386953708E-3,1.312621117E0,8.888473511E0
9.339243820E-1,1.538274586E-1,-4.351461530E-1,1.112465858E1
9.359231320E-1,3.411737457E-2,1.490390599E-1,8.936357498E0
9.379218820E-1,1.538274586E-1,1.496376097E-2,9.424775124E0
9.399206320E-1,1.394622475E-1,-1.115099430E0,1.074637413E1
9.419193820E-1,3.890577704E-2,-3.776853085E-1,9.271546364E0
9.439181320E-1,4.507084787E-1,-9.618705511E-1,1.128746414E1
9.459168820E-1,3.932476342E-1,9.870096445E-1,7.006631374E0
9.479156320E-1,2.495955229E-1,5.704185367E-1,8.079233170E0
9.499144340E-1,8.200141042E-2,-2.531868219E-1,9.247604370E0
9.519132360E-1,9.157821536E-2,-1.095945835E0,1.090917969E1
9.539120380E-1,1.017535757E-2,-3.728969097E-1,1.144069290E1
9.559108400E-1,6.763619930E-2,5.416881442E-1,1.047343540E1
9.579096940E-1,1.975216344E-2,-2.771288455E-1,8.969876289E0
9.599086000E-1,3.262099922E-1,-1.608304977E0,1.055004978E1
9.619075070E-1,2.400187254E-1,1.470638394E0,6.719326973E0
9.639064130E-1,3.788824081E-1,1.547252893E0,8.060079575E0
9.659053190E-1,4.746504724E-1,-6.985083222E-1,1.334168911E1
9.679042250E-1,6.326677799E-1,-5.309142470E-1,1.085171890E1
9.699031320E-1,5.512649417E-1,-5.686229095E-2,1.010951710E1
9.719019340E-1,7.667431235E-1,4.698620737E-1,9.266757965E0
9.739007360E-1,8.577227592E-1,9.534908533E-1,9.012971878E0
9.758995380E-1,6.326677799E-1,1.441908002E0,9.324218750E0
9.778983400E-1,7.858967185E-1,1.566406488E0,8.917203903E0
9.798971420E-1,4.985924959E-1,9.008184075E-1,1.153646088E1
9.818959440E-1,5.895721912E-1,1.264737010E0,9.089587212E0
9.838947460E-1,5.991489887E-1,5.752069354E-1,9.151836395E0
9.858935480E-1,5.512649417E-1,-2.244564146E-1,1.041597462E1
9.878923500E-1,6.135141850E-1,-1.225232720E0,1.162265205E1
9.898911520E-1,3.932476342E-1,-1.238999367E-1,9.199720383E0
9.918899540E-1,3.357867897E-1,1.049258947E0,7.629123688E0
9.938887570E-1,4.650736749E-1,1.240795016E0,7.777564049E0
9.958875590E-1,5.033808947E-1,-4.064157307E-1,1.166574764E1
9.978863090E-1,-1.669955701E-1,-3.920505345E-1,1.100015926E1
9.998850590E-1,-1.855506375E-2,2.495955229E-1,8.692149162E0
1.001883809E0,2.400187254E-1,-1.574187577E-1,9.391256332E0
1.003882454E0,3.022679687E-1,-4.495113790E-1,1.055004978E1
1.005881100E0,3.980360329E-1,3.884592354E-1,8.945934296E0
1.007879746E0,3.980360329E-1,-8.182184100E-1,1.131140614E1
1.009878392E0,3.411737457E-2,-8.948329091E-1,1.155082607E1
1.011877038E0,-2.148796022E-1,1.336563110E0,6.781576157E0
1.013875684E0,-2.196680009E-1,1.017535757E-2,8.845377922E0
1.015874382E0,-1.957259923E-1,-1.445499301E0,1.141196251E1
1.017873132E0,-7.601590455E-2,-1.244386315E0,1.097621727E1
1.019871934E0,1.873462796E-1,6.087257862E-1,8.874108315E0
1.021870788E0,1.107318252E-1,2.174533606E0,8.615534782E0
1.023869694E0,1.107318252E-1,1.202487826E0,9.295488358E0
1.025868704E0,2.256535143E-1,-2.675520480E-1,1.081820011E1
1.027867819E0,1.155202314E-1,-1.344942808E0,1.108635139E1
1.029867038E0,1.107318252E-1,9.726444483E-1,7.418434143E0
1.031866361E0,2.064998895E-1,5.847837925E-1,8.500613213E0
1.033865788E0,5.225345492E-1,-1.359308004E0,1.310226917E1
1.035865267E0,3.262099922E-1,-1.617881775E0,1.208233929E1
1.037864798E0,1.969230920E-1,3.884592354E-1,7.576451302E0
1.039864382E0,1.538274586E-1,5.273229480E-1,7.408857346E0
1.041864017E0,2.879027426E-1,-1.201290727E0,1.047822380E1
1.043863652E0,9.630676508E-1,7.092822790E-1,1.260427475E1
1.045863288E0,7.811083198E-1,3.524863482E0,7.040150166E0
1.047862923E0,8.816647530E-1,2.346916199E0,7.897274494E0
1.049861986E0,7.092822790E-1,-1.033696532E0,1.222120285E1
1.051861048E0,4.746504724E-1,-4.227561474E0,1.497932339E1
1.053860111E0,2.448071241E-1,-1.522113681E0,7.538144112E0
1.055859173E0,-6.643909961E-2,6.230909824E-1,4.430470467E0
1.057858236E0,1.442506462E-1,-2.293046713E0,1.095227528E1
1.059857298E0,2.256535143E-1,-1.536478996E0,1.121563816E1
1.061856257E0,-6.643909961E-2,3.405751884E-1,7.921216488E0
1.063855215E0,-5.207388848E-2,6.470330358E-1,8.438364029E0
1.065854173E0,2.208651006E-1,-6.697779298E-1,1.122042656E1
1.067853132E0,9.157821536E-2,-6.165069342E-2,1.054526138E1
1.069852090E0,3.070563674E-1,-1.139041424E0,1.209670448E1
1.071851048E0,5.943605900E-1,1.586158574E-1,1.101452446E1
1.073850007E0,2.974795699E-1,2.509721994E0,5.843049049E0
1.075848965E0,5.081692934E-1,-4.303577542E-1,1.137844372E1
1.077847923E0,3.166331649E-1,-1.244386315E0,1.228824043E1
1.079846882E0,5.327098817E-2,2.045246840E0,5.795165062E0
1.081845840E0,2.017114908E-1,1.666962981E0,6.901286602E0
1.083844850E0,3.070563674E-1,-1.196502328E0,1.100494766E1
1.085843913E0,9.636662155E-2,-2.398391485E0,1.251329517E1
1.087843027E0,-1.855506375E-2,1.969230920E-1,7.949946880E0
1.089842194E0,1.442506462E-1,9.870096445E-1,7.839813232E0
1.091841413E0,-1.526303589E-1,-1.076792240E0,1.150294209E1
1.093840684E0,-1.095347255E-1,-2.288258314E0,1.212064648E1
1.095839954E0,-1.334767491E-1,-9.187749028E-1,9.147047997E0
1.097839225E0,-3.010708690E-1,-2.053027898E-1,8.452729225E0
1.099838496E0,-4.207809567E-1,-1.143231317E-1,9.764751434E0
1.101837767E0,-3.058592677E-1,4.315548539E-1,9.142259598E0
1.103837038E0,-3.298012912E-1,-2.771288455E-1,1.052610779E1
1.105835944E0,-4.064157307E-1,4.746504724E-1,9.305065155E0
1.107834850E0,-3.441664875E-1,4.171896577E-1,1.014782429E1
1.109833757E0,-2.340332121E-1,8.050503135E-1,9.525331497E0
1.111832663E0,-3.920505345E-1,-1.717839688E-1,9.994594574E0
1.113831569E0,-4.782418013E-1,-6.027402878E-1,1.002811337E1
1.115830527E0,-5.931634903E-1,-1.574187577E-1,9.194931984E0
1.117829538E0,-4.207809567E-1,3.022679687E-1,8.711302757E0
1.119828600E0,-3.154360652E-1,-1.704073071E0,1.062187576E1
1.121827715E0,-3.824737072E-1,-3.044826031E0,1.208712769E1
1.123826882E0,-4.830302000E-1,-1.201290727E0,8.969876289E0
1.125826100E0,-2.531868219E-1,3.214215636E-1,6.810306549E0
1.127825371E0,8.678980917E-2,1.203086376E-1,9.032125473E0
1.129824694E0,-1.478419602E-1,9.678560495E-1,8.189367294E0
1.131824069E0,1.059434265E-1,4.848258570E-2,9.726444244E0
1.133823496E0,1.496376097E-2,-1.139041424E0,1.189559078E1
1.135822923E0,-2.962824702E-1,3.549404144E-1,9.185355186E0
1.137822350E0,-1.095347255E-1,8.242039084E-1,8.184578896E0
1.139821777E0,1.586158574E-1,-6.985083222E-1,1.125873375E1
1.141821204E0,2.735375464E-1,-1.641823769E0,1.320761395E1
1.143820527E0,1.107318252E-1,1.145026922E0,8.189367294E0
1.145819590E0,4.842272997E-1,6.901286244E-1,9.185355186E0
1.147818652E0,3.549404144E-1,1.681926697E-1,9.587580681E0
1.149817715E0,4.746504724E-1,1.969230920E-1,8.725667953E0
1.151816621E0,6.422445774E-1,3.549404144E-1,8.649053574E0
1.153815527E0,3.884592354E-1,-3.441664875E-1,1.024359226E1
1.155814434E0,3.070563674E-1,8.678980917E-2,9.400833130E0
1.157813340E0,6.135141850E-1,-8.469488621E-1,1.049258900E1
1.159812246E0,7.571662664E-1,-2.053027898E-1,9.831789017E0
1.161811152E0,5.273229480E-1,-1.402403593E0,1.144548130E1
1.163810059E0,1.250371814E0,3.549404144E-1,9.803058624E0
1.165808965E0,1.101931334E0,1.762730956E0,8.850166321E0
1.167807871E0,7.188590765E-1,2.131438017E0,7.897274494E0
1.169806777E0,7.858967185E-1,-7.601590455E-2,1.059314537E1
1.171805684E0,7.428010702E-1,-9.235633016E-1,1.185249519E1
1.173804590E0,5.081692934E-1,2.016516447E0,6.527791023E0
1.175803496E0,5.416881442E-1,2.591723204E-1,9.372102737E0
1.177802402E0,4.028244317E-1,-2.565985680E0,1.348055267E1
1.179801309E0,5.273229480E-1,-6.266822815E-1,9.123106003E0
1.181800215E0,1.001374841E0,4.171896577E-1,8.189367294E0
1.183799121E0,1.020528436E0,-3.776853085E-1,1.024838066E1
1.185798079E0,3.890577704E-2,3.836708367E-1,8.735244751E0
1.187797038E0,5.608417392E-1,4.411316514E-1,8.385691643E0
1.189795996E0,4.890156984E-1,-1.813607812E-1,1.064581776E1
1.191794954E0,5.560533404E-1,-1.287482023E0,1.237922001E1
1.193793965E0,3.645172119E-1,1.968632340E0,6.508637428E0
1.195792975E0,2.831143439E-1,-6.793547273E-1,1.010951710E1
1.197791986E0,1.634042710E-1,-8.038532138E-1,1.003290176E1
1.199790996E0,4.028244317E-1,-1.191713929E0,1.068891335E1
1.201790007E0,3.357867897E-1,5.177460909E-1,9.429563522E0
1.203789017E0,-6.165069342E-2,-1.526303589E-1,1.177588081E1
1.205788027E0,-4.189853091E-3,9.726444483E-1,8.194155693E0
1.207787038E0,-1.376665942E-2,6.470330358E-1,8.136694908E0
1.209786048E0,-2.627636492E-1,-1.253963113E0,9.755174637E0
1.211785059E0,-2.244564146E-1,-3.183689594E0,1.229781723E1
1.213784069E0,-5.452794433E-1,-4.590881765E-1,8.261193275E0
1.215783079E0,-4.351461530E-1,-1.855506375E-2,1.019570827E1
1.217782090E0,-4.112041295E-1,-1.478419602E-1,8.198944092E0
1.219781100E0,-3.585317135E-1,-2.475006104E0,1.152209568E1
1.221780111E0,-5.979518890E-1,-1.493383288E0,8.945934296E0
1.223779121E0,-4.686649740E-1,-2.072780132E0,9.491812706E0
1.225778132E0,-4.734533727E-1,-1.546055794E0,8.682572365E0
1.227777142E0,-1.861491799E-1,-6.123170853E-1,7.265204906E0
1.229776152E0,-1.334767491E-1,-8.182184100E-1,8.893261909E0
1.231774902E0,-4.189853091E-3,-1.253963113E0,1.042555141E1
1.233773652E0,-8.559270948E-2,-1.895609140E0,1.184770679E1
1.235772402E0,1.011550203E-1,7.954735160E-1,8.079233170E0
1.237771048E0,2.112883031E-1,1.681926697E-1,1.098100567E1
1.239769694E0,1.394622475E-1,-9.618705511E-1,1.107198620E1
1.241768340E0,2.735375464E-1,-6.314706802E-1,1.017176628E1
1.243766986E0,2.400187254E-1,1.107318252E-1,8.462306023E0
1.245765632E0,3.740940094E-1,-5.309142470E-1,9.956287384E0
1.247764277E0,5.991489887E-1,-4.064157307E-1,9.549273491E0
1.249762975E0,8.050503135E-1,-1.459864497E0,1.132577133E1
1.251761673E0,9.391255975E-1,-2.154182911E0,1.179503441E1
1.253760371E0,8.098387122E-1,-1.541267395E0,1.002332497E1
1.255759121E0,8.768763542E-1,3.070563674E-1,7.949946880E0
1.257757923E0,1.221641421E0,-5.165489912E-1,7.949946880E0
1.259756777E0,1.231218219E0,-2.029684544E0,1.020528507E1
1.261755684E0,9.199720025E-1,-1.795052767E0,1.030105305E1
1.263754642E0,6.183025837E-1,7.858967185E-1,6.063315868E0
1.265753652E0,5.560533404E-1,-2.407968283E0,1.195783997E1
1.267752715E0,6.661866307E-1,-3.609857559E0,1.384447098E1
1.269751777E0,7.906851172E-1,-1.717839688E-1,8.826224327E0
1.271750840E0,9.678560495E-1,1.513733983E0,6.058527470E0
1.273749902E0,6.039373875E-1,-1.292270422E0,1.066975975E1
1.275748965E0,4.267664552E-1,-2.340930700E0,1.198657036E1
1.277748027E0,4.698620737E-1,-1.009754539E0,9.223662376E0
1.279747090E0,4.411316514E-1,-1.292270422E0,8.950722694E0
1.281746152E0,4.411316514E-1,-5.500678420E-1,8.768763542E0
1.283744902E0,2.974795699E-1,-1.986588836E0,9.941922188E0
1.285743548E0,-4.728548229E-2,-1.991377234E0,9.166201591E0
1.287742194E0,-4.399345517E-1,-2.623446465E0,9.783905029E0
1.289740840E0,-4.734533727E-1,-2.475006104E0,9.510966301E0
1.291739486E0,-5.883750916E-1,-2.206855536E0,9.218873978E0
1.293738132E0,-4.878185987E-1,-2.920327425E0,1.001374817E1
1.295736829E0,-3.298012912E-1,-2.786252260E0,1.032020664E1
1.297735579E0,-5.021837950E-1,-1.957858443E0,8.754398346E0
1.299734382E0,-1.430535465E-1,-1.062427044E0,7.811082840E0
1.301733236E0,-4.728548229E-2,-2.661753654E0,1.251329517E1
1.303732090E0,-1.143231317E-1,-1.469441295E0,1.023401546E1
1.305730944E0,-1.095347255E-1,-9.810241461E-1,1.094748688E1
1.307729798E0,-2.723404467E-1,-1.043273449E0,8.390480042E0
1.309728652E0,-3.250128925E-1,-3.858854532E0,1.164180565E1
1.311727507E0,-3.393780887E-1,-2.321777105E0,9.477447510E0
1.313726361E0,-2.627636492E-1,2.400187254E-1,5.522226334E0
1.315725215E0,1.873462796E-1,-1.665765882E0,1.028668785E1
1.317723965E0,1.017535757E-2,-2.781463861E0,1.385404778E1
1.319722715E0,1.975216344E-2,-2.891597033E0,1.086608410E1
1.321721465E0,1.203086376E-1,-8.613140583E-1,7.068880558E0
1.323720215E0,3.740940094E-1,-1.517325282E0,8.380903244E0
1.325718965E0,3.501519859E-1,-1.981800437E0,9.989806175E0
1.327717715E0,1.921346933E-1,-2.446275473E0,1.086129570E1
1.329716465E0,1.634042710E-1,-8.230068088E-1,9.242815971E0
1.331715267E0,4.842272997E-1,-4.303577542E-1,9.170989990E0
1.333714121E0,3.262099922E-1,-2.053626537E0,1.064581776E1
1.335713027E0,-1.376665942E-2,-2.580350876E0,9.736021042E0
1.337711986E0,-1.717839688E-1,-3.121440411E0,9.582792282E0
1.339710996E0,-3.633201122E-1,-1.014542937E0,7.595604897E0
1.341710059E0,2.932897024E-2,-1.158195019E0,9.070432663E0
1.343709121E0,-2.813187055E-2,-1.876455545E0,1.117733097E1
1.345708184E0,2.495955229E-1,-1.301847219E0,1.015261269E1
1.347707246E0,5.752069354E-1,-1.555632591E0,9.989806175E0
1.349706309E0,3.453635871E-1,-1.747168660E0,1.044949341E1
1.351705371E0,2.352303118E-1,-9.714473486E-1,8.950722694E0
1.353704434E0,1.729810685E-1,-1.335366011E0,9.616311073E0
1.355703496E0,9.636662155E-2,-2.561197281E0,1.174715042E1
1.357702559E0,5.327098817E-2,-5.644330382E-1,9.429563522E0
1.359701621E0,8.678980917E-2,-8.182184100E-1,8.318654060E0
1.361700684E0,-2.148796022E-1,-7.080851793E-1,8.491036415E0
1.363699746E0,-3.154360652E-1,-1.311424017E0,9.099164009E0
1.365698809E0,-5.931634903E-1,-3.423109770E0,1.319803715E1
1.367697871E0,-6.745663285E-1,-3.538031578E0,1.094748688E1
1.369696934E0,-7.751228213E-1,-1.488594890E0,4.636371613E0
1.371695996E0,-4.926069975E-1,-2.350507498E0,8.419210434E0
1.373695059E0,-3.968389332E-1,-4.127005100E0,1.367208862E1
1.375694121E0,-4.112041295E-1,-1.498171687E0,1.293946266E1
1.377693184E0,-3.010708690E-1,-4.782418013E-1,6.762422562E0
1.379692246E0,-3.154360652E-1,6.763619930E-2,7.983465672E0
1.381691309E0,-2.005143911E-1,-7.032967210E-1,1.046864700E1
1.383690371E0,-6.165069342E-2,-1.402403593E0,1.109592819E1
1.385689225E0,1.442506462E-1,-1.718438268E0,9.381679535E0
1.387688027E0,-8.559270948E-2,-2.192490101E0,9.549273491E0
1.389686829E0,-2.483984232E-1,-2.838924646E0,9.534908295E0
1.391685632E0,-3.154360652E-1,-2.762310266E0,9.151836395E0
1.393684434E0,-5.883750916E-1,-2.987365246E0,1.131619453E1
1.395683132E0,-3.776853085E-1,-1.766322255E0,8.625111580E0
1.397681725E0,-4.542997777E-1,-9.522937536E-1,8.055291176E0
1.399680215E0,-4.112041295E-1,-3.356072187E0,1.137365532E1
1.401678704E0,-5.548562407E-1,-3.035249233E0,9.879673004E0
1.403677194E0,-7.368155718E-1,-2.613869667E0,1.148378849E1
1.405675684E0,-6.410474777E-1,-1.957858443E0,7.547720909E0
1.407674173E0,-5.500678420E-1,-2.724003077E0,1.121084976E1
1.409672715E0,-5.357026458E-1,-1.483806491E0,1.004726696E1
1.411671309E0,-3.920505345E-1,-1.828571558E0,9.654618263E0
1.413669954E0,-2.914940715E-1,-2.518101692E0,8.060079575E0
1.415668652E0,-3.633201122E-1,-2.939481020E0,9.012971878E0
1.417667402E0,-2.579752207E-1,-2.604292870E0,9.515754700E0
1.419666204E0,1.346738487E-1,-4.270657063E0,1.387798977E1
1.421665059E0,2.932897024E-2,-2.202066898E0,6.537367821E0
1.423663913E0,-1.238999367E-1,-3.672106743E0,9.597157478E0
1.425662767E0,-2.723404467E-1,-2.858078241E0,8.783128738E0
1.427661621E0,-3.681085110E-1,-3.030460835E0,9.841365814E0
1.429660475E0,2.454056777E-2,-3.499724388E0,1.148857689E1
1.431659329E0,3.411737457E-2,-4.150947094E0,9.415198326E0
1.433658184E0,-1.717839688E-1,-5.242702961E0,1.064102936E1
1.435657038E0,-2.100912035E-1,-4.610633850E0,8.835801125E0
1.437655892E0,-2.483984232E-1,-2.436698675E0,6.436811447E0
1.439654746E0,2.687491477E-1,-4.184465885E0,1.263779354E1
1.441653600E0,4.507084787E-1,-4.586691856E0,1.197699356E1
1.443652454E0,3.645172119E-1,-2.609081268E0,8.270770073E0
1.445651309E0,3.549404144E-1,-2.556408882E0,8.529343605E0
1.447650215E0,4.028244317E-1,-2.939481020E0,9.305065155E0
1.449649121E0,2.879027426E-1,-4.500500679E0,1.095706367E1
1.451648027E0,3.549404144E-1,-5.592256546E0,1.099537086E1
1.453646934E0,1.921346933E-1,-3.806182146E0,6.872556210E0
1.455645840E0,2.735375464E-1,-4.529231071E0,8.476671219E0
1.457644746E0,5.991489887E-1,-5.166088581E0,1.157955647E1
1.459643652E0,4.602852762E-1,-3.997718334E0,1.168011284E1
1.461642559E0,4.267664552E-1,-3.878008127E0,9.027337074E0
1.463641465E0,2.064998895E-1,-3.231573820E0,7.988254070E0
1.465640371E0,1.538274586E-1,-3.624222755E0,9.774328232E0
1.467639277E0,1.442506462E-1,-3.897161722E0,1.043512821E1
1.469638236E0,1.442506462E-1,-4.150947094E0,1.156519127E1
1.471637246E0,3.166331649E-1,-3.719990969E0,1.026753426E1
1.473636309E0,-3.770867735E-2,-3.518877983E0,8.146271706E0
1.475635423E0,2.454056777E-2,-3.662529945E0,8.649053574E0
1.477634538E0,-1.286883354E-1,-4.045602322E0,9.554061890E0
1.479633652E0,-8.080431074E-2,-5.022436619E0,1.162265205E1
1.481632767E0,-1.861491799E-1,-3.399167776E0,9.410409927E0
1.483631882E0,-1.909375787E-1,-3.523666382E0,8.366538048E0
1.485630996E0,-5.883750916E-1,-3.911526918E0,9.080010414E0
1.487630111E0,-7.368155718E-1,-5.573102951E0,1.117254257E1
1.489629017E0,-1.086369038E0,-6.028001308E0,1.075595093E1
1.491627871E0,-1.215655923E0,-5.501276970E0,9.716867447E0
1.493626517E0,-1.057638645E0,-4.194042683E0,8.404845238E0
1.495625163E0,-7.559691668E-1,-4.213196278E0,8.965087891E0
1.497623809E0,-7.032967210E-1,-4.605845451E0,1.047343540E1
1.499622454E0,-8.373720646E-1,-4.160523891E0,9.985017776E0
1.501621100E0,-8.086416125E-1,-4.299387932E0,9.865307808E0
1.503619746E0,-7.080851793E-1,-4.323329926E0,9.827000618E0
1.505618392E0,-8.325836658E-1,-3.710414171E0,8.917203903E0
1.507617090E0,-2.962824702E-1,-3.925892353E0,9.879673004E0
1.509615840E0,-3.010708690E-1,-3.734356165E0,9.827000618E0
1.511614590E0,-5.309142470E-1,-2.977788448E0,8.778340340E0
1.513613340E0,-3.345896900E-1,-3.887584925E0,1.006163311E1
1.515612090E0,-2.531868219E-1,-4.045602322E0,1.020528507E1
1.517610892E0,-6.165069342E-2,-3.619434357E0,9.458293915E0
1.519609694E0,-8.978256024E-3,-4.275445461E0,1.053089619E1
1.521608496E0,6.284779310E-2,-4.256291866E0,9.793481827E0
1.523607298E0,-1.382651478E-1,-3.777451754E0,8.763975143E0
1.525606100E0,3.890577704E-2,-3.978564739E0,8.874108315E0
1.527604954E0,1.969230920E-1,-4.759074211E0,9.367314339E0
1.529603861E0,4.028244317E-1,-5.846042156E0,1.121563816E1
1.531602819E0,2.017114908E-1,-5.228337765E0,1.024359226E1
1.533601829E0,2.160767019E-1,-4.232349873E0,8.845377922E0
