"Time (s)","Acceleration x (m/s^2)","Acceleration y (m/s^2)","Acceleration z (m/s^2)"
2.058325000E-2,3.501519859E-1,2.639607489E-1,9.472659111E0
2.258241700E-2,3.645172119E-1,2.831143439E-1,9.439140320E0
2.458132300E-2,3.549404144E-1,2.639607489E-1,9.429563522E0
2.658017700E-2,3.405751884E-1,2.879027426E-1,9.410409927E0
2.857903100E-2,3.070563674E-1,2.831143439E-1,9.400833130E0
3.058465600E-2,3.166331649E-1,2.735375464E-1,9.391256332E0
3.257674000E-2,2.639607489E-1,2.735375464E-1,9.386467934E0
3.456908300E-2,2.783259451E-1,2.687491477E-1,9.396044731E0
3.656194800E-2,2.448071241E-1,2.448071241E-1,9.439140320E0
3.855554200E-2,2.448071241E-1,2.400187254E-1,9.463082314E0
4.055007300E-2,2.304419130E-1,2.543839216E-1,9.463082314E0
4.254564600E-2,2.160767019E-1,2.879027426E-1,9.467870712E0
4.454236500E-2,2.304419130E-1,3.309983909E-1,9.482235909E0
4.654028100E-2,2.591723204E-1,3.549404144E-1,9.530119896E0
4.853939600E-2,2.687491477E-1,4.219780564E-1,9.597157478E0
5.053965600E-2,2.543839216E-1,4.842272997E-1,9.659406662E0
5.254095800E-2,2.974795699E-1,5.416881442E-1,9.712079048E0
5.454314600E-2,3.070563674E-1,6.422445774E-1,9.755174637E0
5.654606300E-2,3.597288132E-1,8.768763542E-1,9.793481827E0
5.854955200E-2,3.836708367E-1,1.154603720E0,9.855731010E0
6.055340600E-2,3.645172119E-1,1.504157186E0,9.922768593E0
6.255741700E-2,3.357867897E-1,1.767519355E0,1.000895977E1
6.456085400E-2,3.118447661E-1,1.858499050E0,1.016697788E1
6.656002100E-2,2.974795699E-1,2.006939650E0,1.031541824E1
6.855918800E-2,2.591723204E-1,2.102707624E0,1.039203262E1
7.055835400E-2,2.495955229E-1,2.370858192E0,1.037766743E1
7.255746900E-2,2.208651006E-1,2.495356798E0,1.044470501E1
7.455637500E-2,1.442506462E-1,2.452261209E0,1.060751057E1
7.655528100E-2,1.011550203E-1,2.519298792E0,1.063145256E1
7.855418800E-2,8.678980917E-2,2.576759577E0,1.062666416E1
8.055309400E-2,8.200141042E-2,2.672527552E0,1.059793377E1
8.255200000E-2,5.327098817E-2,2.820968151E0,1.049737740E1
8.455090600E-2,1.975216344E-2,2.921524525E0,1.045907021E1
8.654981300E-2,-1.376665942E-2,3.036446333E0,1.053568459E1
8.854877100E-2,6.284779310E-2,3.218405724E0,1.038245583E1
9.054778100E-2,4.848258570E-2,3.357269287E0,1.035372543E1
9.254684400E-2,-1.855506375E-2,3.280654907E0,1.063624096E1
9.454595800E-2,2.932897024E-2,3.414730072E0,1.060272217E1
9.654512500E-2,5.327098817E-2,3.520075083E0,1.013345909E1
9.854429200E-2,8.678980917E-2,3.491344690E0,1.028668785E1
1.005434580E-1,2.932897024E-2,3.290231705E0,1.047822380E1
1.025426250E-1,-4.189853091E-3,3.385999680E0,1.026753426E1
1.045417920E-1,-6.165069342E-2,3.285443306E0,9.922768593E0
1.065409580E-1,-1.669955701E-1,3.127425909E0,9.807847023E0
1.085401250E-1,-2.244564146E-1,3.108272314E0,9.592369080E0
1.105392920E-1,-2.819172442E-1,2.964620352E0,9.635464668E0
1.125384580E-1,-3.154360652E-1,2.797026157E0,9.712079048E0
1.145376250E-1,-3.250128925E-1,2.854486942E0,9.554061890E0
1.165368440E-1,-3.010708690E-1,2.624643564E0,9.668983459E0
1.185360630E-1,-3.154360652E-1,2.562394381E0,1.014303589E1
1.205352810E-1,-3.298012912E-1,2.672527552E0,1.001853657E1
1.225345000E-1,-3.441664875E-1,2.931101322E0,9.147047997E0
1.245337190E-1,-4.542997777E-1,2.816179752E0,9.285911560E0
1.265329380E-1,-4.686649740E-1,2.758718967E0,9.635464668E0
1.285321040E-1,-4.734533727E-1,2.811391354E0,9.520543098E0
1.305312710E-1,-4.734533727E-1,3.079541922E0,9.218873978E0
1.325302810E-1,-4.638765752E-1,3.304596901E0,8.969876289E0
1.345292920E-1,-4.973953962E-1,3.146579504E0,9.443928719E0
1.365283020E-1,-5.165489912E-1,3.204040527E0,9.467870712E0
1.385273130E-1,-4.878185987E-1,3.285443306E0,9.281123161E0
1.405263230E-1,-4.973953962E-1,3.424306870E0,9.228450775E0
1.425252290E-1,-5.692214370E-1,3.500921488E0,9.204508781E0
1.445241360E-1,-5.500678420E-1,3.429095268E0,9.506177902E0
1.465230420E-1,-5.787982345E-1,3.544017076E0,9.257181168E0
1.485219480E-1,-5.835866928E-1,3.453037500E0,9.506177902E0
1.505208540E-1,-6.745663285E-1,3.429095268E0,9.443928719E0
1.525197610E-1,-6.793547273E-1,3.740341663E0,9.046490669E0
1.545186670E-1,-8.277952671E-1,2.643797159E0,7.983465672E0
1.565176250E-1,-6.649895310E-1,2.174533606E0,1.185249519E1
1.585166360E-1,-4.686649740E-1,3.965396643E0,9.257181168E0
1.605156980E-1,-5.261258483E-1,4.042010784E0,8.720879555E0
1.625148130E-1,-6.410474777E-1,3.443460703E0,8.419210434E0
1.645139790E-1,-6.171054840E-1,2.868852139E0,9.238027573E0
1.665131980E-1,-6.266822815E-1,3.275866508E0,9.314641953E0
1.685124690E-1,-5.309142470E-1,3.491344690E0,9.199720383E0
1.705117920E-1,-4.495113790E-1,3.218405724E0,8.845377922E0
1.725111670E-1,-5.117605925E-1,2.945466757E0,9.266757965E0
1.745105420E-1,-4.112041295E-1,2.907159328E0,9.956287384E0
1.765099170E-1,-4.064157307E-1,3.156156301E0,9.257181168E0
1.785092920E-1,-3.345896900E-1,3.242347717E0,9.166201591E0
1.805086150E-1,-2.962824702E-1,3.266289711E0,8.807070732E0
1.825076250E-1,-2.627636492E-1,2.988562346E0,9.539696693E0
1.845066360E-1,-3.058592677E-1,2.907159328E0,9.922768593E0
1.865055940E-1,-2.962824702E-1,3.012504339E0,9.645041466E0
1.885045520E-1,-2.819172442E-1,3.194463730E0,8.797493935E0
1.905035110E-1,-2.244564146E-1,2.806602955E0,9.597157478E0
1.925024690E-1,-2.436100245E-1,2.691681147E0,1.010472870E1
1.945014270E-1,-1.861491799E-1,2.988562346E0,9.798270226E0
1.965003860E-1,-2.579752207E-1,3.333327293E0,8.840589523E0
1.984993440E-1,-2.148796022E-1,3.347692490E0,9.103952408E0
2.004983020E-1,-1.095347255E-1,2.998139143E0,9.798270226E0
2.024972610E-1,-1.286883354E-1,3.074753523E0,9.621099472E0
2.044962190E-1,-9.038111567E-2,3.347692490E0,9.496601105E0
2.064951770E-1,-3.292027488E-2,3.419518471E0,9.419986725E0
2.084941360E-1,-1.191115379E-1,3.405153275E0,1.016218948E1
2.104931460E-1,-1.574187577E-1,3.510498285E0,9.932345390E0
2.124922080E-1,-7.601590455E-2,3.400364876E0,9.894038200E0
2.144912710E-1,-2.723404467E-1,3.658938646E0,9.649829865E0
2.164903330E-1,-3.441664875E-1,3.615843058E0,9.161413193E0
2.184893960E-1,-2.867056429E-1,3.309385300E0,9.707290649E0
2.204884580E-1,-2.292448133E-1,3.438672304E0,1.025795746E1
2.224875210E-1,-1.095347255E-1,3.409941673E0,1.034414864E1
2.244865830E-1,-1.855506375E-2,3.093907118E0,1.049258900E1
2.264856460E-1,-1.382651478E-1,3.022081137E0,1.020528507E1
2.284847080E-1,4.848258570E-2,3.208828926E0,1.030105305E1
2.304837710E-1,5.985504249E-4,3.702034473E0,9.946710587E0
2.324828330E-1,-1.622071713E-1,3.467402697E0,9.726444244E0
2.344818960E-1,-2.053027898E-1,2.935889721E0,1.025316906E1
2.364809580E-1,-1.526303589E-1,3.160944700E0,9.922768593E0
2.384800210E-1,-4.728548229E-2,3.204040527E0,1.029147625E1
2.404790830E-1,-5.207388848E-2,3.448249102E0,9.214085579E0
2.424781460E-1,-1.855506375E-2,3.050811529E0,9.865307808E0
2.444772080E-1,-4.728548229E-2,3.170521498E0,9.716867447E0
2.464762710E-1,-8.559270948E-2,3.050811529E0,9.362525940E0
2.484753330E-1,2.454056777E-2,2.840121746E0,1.015261269E1
2.504743960E-1,-4.249707982E-2,2.950255156E0,9.783905029E0
2.524734580E-1,-6.165069342E-2,2.562394381E0,1.017655468E1
2.544725210E-1,-9.516951442E-2,2.720411777E0,1.010472870E1
2.564715830E-1,-1.526303589E-1,3.031657934E0,1.008557510E1
2.584706460E-1,-1.286883354E-1,2.993350744E0,9.635464668E0
2.604697080E-1,-1.478419602E-1,2.911947727E0,9.271546364E0
2.624687710E-1,-6.165069342E-2,2.548029184E0,1.048780060E1
2.644678330E-1,-3.292027488E-2,3.098695517E0,9.994594574E0
2.664668960E-1,1.017535757E-2,3.318962097E0,9.156624794E0
2.684660110E-1,1.777694821E-1,2.586336374E0,1.057878017E1
2.704651250E-1,1.681926697E-1,2.533663988E0,1.063624096E1
2.724642400E-1,5.386953708E-3,3.606266260E0,8.414422035E0
2.744633540E-1,1.155202314E-1,3.208828926E0,8.931569099E0
2.764624690E-1,8.678980917E-2,2.361281395E0,1.008078671E1
2.784615830E-1,1.155202314E-1,2.710834980E0,1.024838066E1
2.804606980E-1,3.022679687E-1,2.729988575E0,9.180566788E0
2.824598650E-1,2.256535143E-1,2.662950754E0,1.068412495E1
2.844590830E-1,1.873462796E-1,2.720411777E0,9.678560257E0
2.864583020E-1,1.155202314E-1,2.490568399E0,9.520543098E0
2.884575210E-1,2.256535143E-1,2.303820610E0,1.070806694E1
2.904567400E-1,1.777694821E-1,2.648585558E0,1.000895977E1
2.924559580E-1,7.721300423E-2,2.959831953E0,8.921992302E0
2.944551770E-1,-4.189853091E-3,2.571971178E0,9.587580681E0
2.964543960E-1,-1.376665942E-2,2.763507366E0,9.041702271E0
2.984536150E-1,-2.148796022E-1,2.653373957E0,9.487024307E0
3.004528330E-1,-9.516951442E-2,2.749142170E0,9.453505516E0
3.024518960E-1,-1.095347255E-1,2.155380011E0,1.016218948E1
3.044509060E-1,-8.080431074E-2,2.356492996E0,9.692925453E0
3.064499170E-1,-1.430535465E-1,2.615066767E0,9.501389503E0
3.084489270E-1,-1.238999367E-1,2.562394381E0,9.467870712E0
3.104479380E-1,-1.334767491E-1,1.882441044E0,1.042555141E1
3.124469480E-1,-4.189853091E-3,2.677315950E0,9.750386238E0
3.144459580E-1,-4.189853091E-3,2.931101322E0,9.276334763E0
3.164449690E-1,-1.669955701E-1,2.299032211E0,9.161413193E0
3.184439790E-1,-2.388216257E-1,2.141014814E0,9.415198326E0
3.204429900E-1,-2.196680009E-1,2.270301819E0,9.439140320E0
3.224420000E-1,-1.526303589E-1,2.203263998E0,9.477447510E0
3.244410110E-1,-2.579752207E-1,2.102707624E0,9.472659111E0
3.264400210E-1,-2.100912035E-1,2.504933596E0,9.065644264E0
3.284390310E-1,-2.053027898E-1,2.145803213E0,9.625887871E0
3.304380420E-1,-2.675520480E-1,2.188898802E0,9.118317604E0
3.324370520E-1,-2.292448133E-1,2.260725021E0,9.314641953E0
3.344360630E-1,-2.914940715E-1,2.150591612E0,9.343372345E0
3.364350730E-1,-2.771288455E-1,2.145803213E0,9.812635422E0
3.384340830E-1,-2.436100245E-1,2.064400434E0,9.927556992E0
3.404330940E-1,-3.585317135E-1,2.773084164E0,9.242815971E0
3.424321040E-1,-4.686649740E-1,2.619855165E0,8.672995567E0
3.444311150E-1,-3.585317135E-1,2.227206230E0,9.099164009E0
3.464301250E-1,-3.058592677E-1,2.385223389E0,9.506177902E0
3.484291360E-1,-1.861491799E-1,2.107496023E0,9.922768593E0
3.504281460E-1,-1.813607812E-1,1.987785935E0,9.027337074E0
3.524271560E-1,-2.388216257E-1,1.978209138E0,9.376891136E0
3.544262190E-1,-1.143231317E-1,2.136226416E0,9.132682800E0
3.564253330E-1,-5.207388848E-2,1.868075848E0,9.180566788E0
3.584245000E-1,8.678980917E-2,1.686116576E0,9.999382973E0
3.604237190E-1,1.777694821E-1,1.595136881E0,1.049737740E1
3.624229900E-1,2.543839216E-1,1.839345455E0,1.034893703E1
3.644223130E-1,3.118447661E-1,2.150591612E0,9.510966301E0
3.664216360E-1,3.357867897E-1,2.016516447E0,1.011430550E1
3.684209580E-1,3.070563674E-1,2.164956808E0,1.009036350E1
3.704202810E-1,3.740940094E-1,2.576759577E0,9.755174637E0
3.724196040E-1,4.363432527E-1,2.662950754E0,9.458293915E0
3.744187190E-1,4.076128304E-1,2.562394381E0,9.621099472E0
3.764177290E-1,4.985924959E-1,2.605489969E0,9.994594574E0
3.784166360E-1,6.661866307E-1,2.040458441E0,1.043512821E1
3.804155420E-1,7.332242727E-1,1.997362733E0,1.076552773E1
3.824144480E-1,9.151836038E-1,1.834557056E0,1.077989292E1
3.844133540E-1,9.391255975E-1,1.863287449E0,1.112944698E1
3.864122610E-1,9.870096445E-1,2.509721994E0,1.006642151E1
3.884111670E-1,1.101931334E0,2.390011787E0,1.074158573E1
3.904100730E-1,1.106719732E0,2.538452387E0,1.081341171E1
3.924089790E-1,1.054047346E0,2.313397408E0,9.917980194E0
3.944078860E-1,9.774328470E-1,2.634220362E0,9.855731010E0
3.964067920E-1,1.010951638E0,2.586336374E0,1.024359226E1
3.984056980E-1,9.774328470E-1,2.706046581E0,9.692925453E0
4.004046040E-1,8.864531517E-1,2.279878616E0,9.846154213E0
4.024035110E-1,8.816647530E-1,2.255936623E0,9.999382973E0
4.044024170E-1,8.960300088E-1,2.524087191E0,9.831789017E0
4.064013230E-1,7.571662664E-1,2.346916199E0,8.639476776E0
4.084002290E-1,6.518214345E-1,2.131438017E0,9.003395081E0
4.103991360E-1,6.230909824E-1,2.346916199E0,9.668983459E0
4.123980420E-1,5.799953341E-1,1.777096152E0,1.061708736E1
4.143970000E-1,5.560533404E-1,1.255160213E0,1.077510452E1
4.163960110E-1,5.416881442E-1,1.456273198E0,1.072722054E1
4.183950730E-1,5.033808947E-1,2.433107376E0,9.668983459E0
4.203941880E-1,3.884592354E-1,2.126649618E0,9.247604370E0
4.223933540E-1,3.645172119E-1,2.179322004E0,9.108740807E0
4.243925730E-1,3.309983909E-1,2.361281395E0,9.520543098E0
4.263918440E-1,1.586158574E-1,1.777096152E0,9.554061890E0
4.283911670E-1,1.538274586E-1,1.810615063E0,9.951498985E0
4.303905420E-1,2.639607489E-1,2.155380011E0,9.372102737E0
4.323899170E-1,2.160767019E-1,2.299032211E0,9.788693428E0
4.343892920E-1,9.636662155E-2,2.016516447E0,9.491812706E0
4.363886670E-1,1.496376097E-2,2.231994629E0,8.625111580E0
4.383877810E-1,2.454056777E-2,2.251148224E0,9.333795547E0
4.403868960E-1,2.454056777E-2,1.494580388E0,9.721655846E0
4.423860110E-1,-9.995792061E-2,1.422754407E0,1.005684471E1
4.443851250E-1,7.721300423E-2,1.901594758E0,9.884461403E0
4.463842400E-1,4.369417951E-2,1.580771685E0,9.736021042E0
4.483831980E-1,-7.601590455E-2,8.960300088E-1,1.063624096E1
4.503821560E-1,-3.770867735E-2,1.389235497E0,1.043991661E1
4.523811150E-1,-1.095347255E-1,1.638232470E0,9.755174637E0
4.543800730E-1,-1.717839688E-1,1.638232470E0,9.530119896E0
4.563790310E-1,-1.717839688E-1,2.270301819E0,9.094375610E0
4.583779900E-1,-2.483984232E-1,2.088342428E0,9.118317604E0
4.603769480E-1,-1.717839688E-1,2.461838007E0,8.692149162E0
4.623759060E-1,-2.100912035E-1,2.174533606E0,8.577227592E0
4.643749170E-1,-6.643909961E-2,1.738788962E0,9.750386238E0
4.663739790E-1,1.107318252E-1,1.925536752E0,1.032978344E1
4.683730940E-1,1.921346933E-1,1.145026922E0,1.033936024E1
4.703722610E-1,1.729810685E-1,1.221641421E0,1.064102936E1
4.723714790E-1,1.969230920E-1,1.786673069E0,1.091875648E1
4.743707500E-1,3.549404144E-1,1.695693374E0,9.970652580E0
4.763700730E-1,1.729810685E-1,1.087566137E0,9.056067467E0
4.783694480E-1,1.634042710E-1,1.987785935E0,8.921992302E0
4.803688230E-1,1.586158574E-1,2.686892748E0,8.749609947E0
4.823681980E-1,1.538274586E-1,1.959055543E0,8.955511093E0
4.843675730E-1,1.873462796E-1,1.212064624E0,1.043991661E1
4.863669480E-1,3.022679687E-1,2.021304846E0,1.038724422E1
4.883660110E-1,2.735375464E-1,1.829768658E0,1.008557510E1
4.903650210E-1,3.597288132E-1,2.327762604E0,9.491812706E0
4.923640310E-1,3.693056107E-1,2.169745207E0,8.816647530E0
4.943630420E-1,4.076128304E-1,1.710058570E0,9.745597839E0
4.963620520E-1,5.225345492E-1,1.671751380E0,1.028189945E1
4.983610630E-1,4.698620737E-1,1.757942557E0,1.057878017E1
5.003600730E-1,4.124012291E-1,2.050035238E0,1.018134308E1
5.023590830E-1,3.740940094E-1,2.083554029E0,9.012971878E0
5.043580940E-1,3.501519859E-1,1.968632340E0,9.376891136E0
5.063571040E-1,5.273229480E-1,2.107496023E0,9.578003883E0
5.083561150E-1,3.501519859E-1,1.370081902E0,1.025795746E1
5.103551250E-1,4.507084787E-1,1.245583415E0,1.040639782E1
5.123541360E-1,5.608417392E-1,1.532887697E0,9.894038200E0
5.143531980E-1,4.794389009E-1,1.877652645E0,9.228450775E0
5.163523130E-1,3.022679687E-1,1.935113549E0,8.706514359E0
5.183514790E-1,2.687491477E-1,9.534908533E-1,9.587580681E0
5.203506980E-1,3.884592354E-1,1.355716705E0,1.006163311E1
5.223499690E-1,4.315548539E-1,1.599925280E0,1.001853657E1
5.243492920E-1,4.554968774E-1,1.370081902E0,1.008557510E1
5.263486670E-1,4.459200799E-1,1.781884670E0,9.712079048E0
5.283480940E-1,3.022679687E-1,1.556829691E0,9.544485092E0
5.303475210E-1,3.501519859E-1,1.657386184E0,1.015261269E1
5.323469480E-1,3.166331649E-1,1.331774712E0,9.788693428E0
5.343463750E-1,3.453635871E-1,2.011728048E0,9.563638687E0
5.363458020E-1,4.171896577E-1,2.380434990E0,8.615534782E0
5.383452290E-1,2.639607489E-1,1.686116576E0,9.223662376E0
5.403446560E-1,2.495955229E-1,9.247604012E-1,1.006163311E1
5.423438230E-1,3.932476342E-1,1.858499050E0,9.894038200E0
5.443429900E-1,3.932476342E-1,1.753154159E0,8.926780701E0
5.463421560E-1,4.650736749E-1,9.822212458E-1,8.831012726E0
5.483413230E-1,4.411316514E-1,1.054047346E0,1.005205631E1
5.503404380E-1,5.512649417E-1,1.379658699E0,1.065539455E1
5.523395520E-1,5.752069354E-1,1.326986313E0,1.006163311E1
5.543385630E-1,3.214215636E-1,5.081692934E-1,9.702502251E0
5.563374690E-1,4.602852762E-1,8.529343605E-1,9.879673004E0
5.583363750E-1,3.788824081E-1,1.585560083E0,9.348160744E0
5.603352810E-1,4.076128304E-1,1.149815321E0,9.736021042E0
5.623341880E-1,3.980360329E-1,6.949170232E-1,9.683348656E0
5.643330940E-1,5.081692934E-1,6.709750295E-1,9.645041466E0
5.663320000E-1,3.693056107E-1,7.667431235E-1,1.011909389E1
5.683309580E-1,4.650736749E-1,1.781884670E0,1.028668785E1
5.703299690E-1,3.070563674E-1,1.336563110E0,9.458293915E0
5.723290310E-1,2.926911712E-1,1.197699428E0,9.046490669E0
5.743281460E-1,2.495955229E-1,1.499368787E0,9.745597839E0
5.763273130E-1,9.157821536E-2,1.523310781E0,9.510966301E0
5.783265310E-1,1.250970364E-1,1.111508131E0,9.223662376E0
5.803257500E-1,6.284779310E-2,6.805518270E-1,1.054047298E1
5.823249690E-1,5.386953708E-3,4.028244317E-1,1.058835697E1
5.843241880E-1,-4.189853091E-3,5.273229480E-1,1.078946972E1
5.863234060E-1,2.448071241E-1,8.337807655E-1,1.021486187E1
5.883226250E-1,2.017114908E-1,6.853402257E-1,9.386467934E0
5.903218440E-1,2.017114908E-1,2.208651006E-1,1.045428181E1
5.923210630E-1,3.884592354E-1,9.343371987E-1,9.937133789E0
5.943202810E-1,3.405751884E-1,9.008184075E-1,9.554061890E0
5.963195000E-1,1.729810685E-1,1.255160213E0,9.094375610E0
5.983186150E-1,1.155202314E-1,8.960300088E-1,9.008183479E0
6.003175730E-1,1.496376097E-2,5.895721912E-1,9.630676270E0
6.023165310E-1,5.985504249E-4,9.822212458E-1,9.558850288E0
6.043154900E-1,-5.686229095E-2,7.667431235E-1,9.568427086E0
6.063144480E-1,-2.579752207E-1,7.906851172E-1,9.261969566E0
6.083134060E-1,-2.244564146E-1,1.087566137E0,8.663418770E0
6.103123650E-1,-2.053027898E-1,4.794389009E-1,9.142259598E0
6.123113230E-1,-2.962824702E-1,5.464765429E-1,9.836577415E0
6.143102810E-1,-2.819172442E-1,1.451484799E0,9.932345390E0
6.163092400E-1,-4.542997777E-1,7.954735160E-1,1.032499504E1
6.183081980E-1,-3.585317135E-1,9.870096445E-1,9.506177902E0
6.203071560E-1,-3.441664875E-1,8.337807655E-1,9.434351921E0
6.223061150E-1,-2.914940715E-1,1.365293503E0,9.860519409E0
6.243050730E-1,-3.968389332E-1,8.050503135E-1,9.448717117E0
6.263040830E-1,-2.148796022E-1,5.799953341E-1,9.419986725E0
6.283031460E-1,-8.559270948E-2,3.884592354E-1,1.079904652E1
6.303022610E-1,-2.340332121E-1,8.816647530E-1,1.027711105E1
6.323013750E-1,-8.080431074E-2,1.178545833E0,9.951498985E0
6.343005420E-1,5.386953708E-3,8.672995567E-1,9.759963036E0
6.362997610E-1,2.400187254E-1,1.130661726E0,1.003769016E1
6.382989790E-1,1.921346933E-1,1.523310781E0,9.827000618E0
6.402981980E-1,3.070563674E-1,1.652597666E0,8.802282333E0
6.422974170E-1,1.346738487E-1,1.523310781E0,9.922768593E0
6.442966360E-1,3.118447661E-1,1.408389091E0,9.549273491E0
6.462958540E-1,5.608417392E-1,8.768763542E-1,9.712079048E0
6.482950730E-1,6.087257862E-1,6.997054219E-1,1.159871006E1
6.502941880E-1,4.650736749E-1,1.145026922E0,9.582792282E0
6.522930940E-1,4.411316514E-1,1.374870300E0,9.271546364E0
6.542920000E-1,4.124012291E-1,1.791461468E0,8.534132004E0
6.562909060E-1,3.836708367E-1,1.135450125E0,8.074444771E0
6.582898130E-1,4.507084787E-1,9.008184075E-1,1.011909389E1
6.602887190E-1,6.422445774E-1,7.954735160E-1,1.210628128E1
6.622876250E-1,4.698620737E-1,9.534908533E-1,9.630676270E0
6.642865830E-1,5.847837925E-1,1.427542806E0,8.347384453E0
6.662855940E-1,8.433575630E-1,2.093130827E0,9.108740807E0
6.682846560E-1,6.853402257E-1,1.231218219E0,9.506177902E0
6.702837710E-1,7.044938207E-1,1.614290476E0,1.059793377E1
6.722829380E-1,7.906851172E-1,4.554968774E-1,1.065539455E1
6.742821560E-1,7.811083198E-1,3.214215636E-1,1.218768406E1
6.762814270E-1,8.912416101E-1,1.145026922E0,8.768763542E0
6.782806980E-1,7.236474752E-1,1.767519355E0,9.625887871E0
6.802799690E-1,6.278793812E-1,2.126649618E0,9.012971878E0
6.822792400E-1,7.332242727E-1,1.149815321E0,9.065644264E0
6.842785110E-1,6.278793812E-1,6.183025837E-1,1.105283260E1
6.862777810E-1,7.858967185E-1,9.534908533E-1,1.271919632E1
6.882770520E-1,5.704185367E-1,8.433575630E-1,1.076552773E1
6.902763230E-1,4.985924959E-1,7.188590765E-1,8.313865662E0
6.922755940E-1,6.709750295E-1,1.312621117E0,8.974664688E0
6.942748650E-1,6.901286244E-1,1.734000564E0,7.044938564E0
6.962741360E-1,5.608417392E-1,1.494580388E0,7.547720909E0
6.982734060E-1,2.687491477E-1,-7.601590455E-2,9.879673004E0
7.002726770E-1,3.357867897E-1,-8.182184100E-1,1.204403210E1
7.022719480E-1,1.729810685E-1,4.602852762E-1,1.034893703E1
7.042712190E-1,2.454056777E-2,2.112883031E-1,1.016697788E1
7.062704900E-1,-1.143231317E-1,1.188122630E0,7.897274494E0
7.082697610E-1,4.369417951E-2,4.746504724E-1,9.707290649E0
7.102690310E-1,1.681926697E-1,1.975216344E-2,8.696937561E0
7.122683020E-1,1.442506462E-1,3.453635871E-1,9.084798813E0
7.142675730E-1,1.729810685E-1,1.825578809E-1,1.042076302E1
7.162668440E-1,5.985504249E-4,7.721300423E-2,9.640253067E0
7.182661150E-1,6.284779310E-2,-1.143829823E0,9.937133789E0
7.202653330E-1,3.309983909E-1,-1.076792240E0,1.435683060E1
7.222645520E-1,8.200141042E-2,6.230909824E-1,8.347384453E0
7.242637710E-1,3.597288132E-1,1.341351509E0,8.242039680E0
7.262629900E-1,4.219780564E-1,1.992574334E0,7.614758492E0
7.282621040E-1,1.394622475E-1,9.487023950E-1,7.518990517E0
7.302612190E-1,5.273229480E-1,5.129576921E-1,1.014303589E1
7.322603330E-1,4.507084787E-1,6.183025837E-1,9.812635422E0
7.342594480E-1,2.256535143E-1,-8.661024570E-1,1.087087250E1
7.362585630E-1,4.554968774E-1,-1.095347255E-1,1.146942329E1
7.382576770E-1,2.591723204E-1,2.591723204E-1,1.061708736E1
7.402567920E-1,2.017114908E-1,-3.633201122E-1,9.759963036E0
7.422559060E-1,2.879027426E-1,4.507084787E-1,9.008183479E0
7.442550210E-1,5.805939063E-2,9.822212458E-1,9.568427086E0
7.462541360E-1,4.848258570E-2,4.507084787E-1,8.481459618E0
7.482532500E-1,2.543839216E-1,-7.122749835E-2,1.006163311E1
7.502523650E-1,2.591723204E-1,4.650736749E-1,1.027232265E1
7.522514790E-1,1.490390599E-1,2.454056777E-2,9.051279068E0
7.542505940E-1,3.022679687E-1,2.208651006E-1,9.233239174E0
7.562497080E-1,1.825578809E-1,-1.238999367E-1,1.046385860E1
7.582488750E-1,3.411737457E-2,-2.334346622E-2,1.016697788E1
7.602480420E-1,4.848258570E-2,-6.506243348E-1,9.424775124E0
7.622472080E-1,5.805939063E-2,-3.106476665E-1,9.640253067E0
7.642464270E-1,1.250970364E-1,4.650736749E-1,1.026274586E1
7.662456460E-1,-1.909375787E-1,-8.756792545E-1,9.726444244E0
7.682448650E-1,-9.038111567E-2,5.985504249E-4,8.385691643E0
7.702440830E-1,-3.345896900E-1,-1.717839688E-1,9.400833130E0
7.722433020E-1,-4.112041295E-1,-5.021837950E-1,9.621099472E0
7.742425210E-1,-3.393780887E-1,-7.942764163E-1,1.150294209E1
7.762417400E-1,-2.292448133E-1,-9.810241461E-1,1.124915695E1
7.782409580E-1,-2.292448133E-1,-9.516951442E-2,8.960299492E0
7.802401770E-1,-3.202244639E-1,-2.914940715E-1,8.433575630E0
7.822393960E-1,-1.765723825E-1,4.985924959E-1,1.066018295E1
7.842386150E-1,-3.298012912E-1,6.230909824E-1,1.030584145E1
7.862378330E-1,-2.531868219E-1,-1.019331336E0,8.941145897E0
7.882370520E-1,-4.255693555E-1,-1.019331336E0,1.044470501E1
7.902362710E-1,-2.819172442E-1,9.008184075E-1,1.033457184E1
7.922354900E-1,-4.686649740E-1,5.327098817E-2,7.830236435E0
7.942345520E-1,-2.388216257E-1,-8.182184100E-1,8.514978409E0
7.962336150E-1,-1.526303589E-1,-3.393780887E-1,1.091875648E1
7.982326770E-1,-2.053027898E-1,-4.973953962E-1,9.443928719E0
8.002317400E-1,-2.819172442E-1,-3.728969097E-1,1.016218948E1
8.022308020E-1,-1.765723825E-1,-7.846996188E-1,9.319430351E0
8.042298650E-1,-7.122749835E-2,-1.301847219E0,1.133534813E1
8.062289270E-1,-3.441664875E-1,-9.666589499E-1,1.100494766E1
8.082279900E-1,-3.872621357E-1,1.825578809E-1,7.863755703E0
8.102270520E-1,-2.148796022E-1,3.884592354E-1,8.376114845E0
8.122261150E-1,-1.765723825E-1,-5.883750916E-1,7.868544102E0
8.142251770E-1,-8.559270948E-2,-1.469441295E0,1.279581070E1
8.162242400E-1,-1.095347255E-1,-2.531868219E-1,8.586804390E0
8.182233020E-1,-1.909375787E-1,1.346738487E-1,9.898826599E0
8.202223650E-1,-3.770867735E-2,-7.601590455E-2,9.673771858E0
8.222214270E-1,2.208651006E-1,-9.714473486E-1,1.220204926E1
8.242204900E-1,-7.601590455E-2,-3.058592677E-1,9.271546364E0
8.262195520E-1,7.721300423E-2,9.726444483E-1,7.739256859E0
8.282186150E-1,8.678980917E-2,-1.038484931E0,8.074444771E0
8.302176770E-1,4.698620737E-1,-6.218938828E-1,1.455794334E1
8.322167400E-1,-8.978256024E-3,2.141014814E0,1.015261269E1
8.342158020E-1,-2.292448133E-1,1.532887697E0,3.764882088E0
8.362148650E-1,-3.441664875E-1,-1.095945835E0,6.441599846E0
8.382139270E-1,1.496376097E-2,-5.931634903E-1,1.274313831E1
8.402129900E-1,1.777694821E-1,-8.230068088E-1,1.475426769E1
8.422120520E-1,1.017535757E-2,-4.973953962E-1,8.198944092E0
8.442111150E-1,-9.038111567E-2,3.932476342E-1,8.074444771E0
8.462101770E-1,-1.191115379E-1,2.448071241E-1,9.487024307E0
8.482092400E-1,-1.430535465E-1,9.636662155E-2,1.061229897E1
8.502083020E-1,-2.579752207E-1,9.157821536E-2,8.093599319E0
8.522073650E-1,-1.765723825E-1,-6.027402878E-1,9.965864182E0
8.542064270E-1,-1.047463268E-1,-1.813607812E-1,1.249892998E1
8.562054900E-1,-3.345896900E-1,2.400187254E-1,9.477447510E0
8.582045520E-1,-4.112041295E-1,9.630676508E-1,7.782352448E0
8.602036150E-1,-3.824737072E-1,5.943605900E-1,8.596381187E0
8.622026770E-1,-5.787982345E-1,-3.872621357E-1,1.225951004E1
8.642017400E-1,-3.537433147E-1,-5.069721937E-1,1.063624096E1
8.662008020E-1,-4.303577542E-1,-2.388216257E-1,1.009994030E1
8.681998650E-1,-5.979518890E-1,9.343371987E-1,9.372102737E0
8.701989270E-1,-4.926069975E-1,6.374561787E-1,8.012195587E0
8.721979900E-1,-4.878185987E-1,7.242459804E-2,9.056067467E0
8.741970520E-1,-5.069721937E-1,4.848258570E-2,9.616311073E0
8.761961150E-1,-4.782418013E-1,-5.261258483E-1,1.214458847E1
8.781951770E-1,-4.159925580E-1,-6.165069342E-2,1.059314537E1
8.801942400E-1,-4.112041295E-1,4.650736749E-1,6.958747387E0
8.821933020E-1,-1.191115379E-1,2.495955229E-1,9.352949142E0
8.841923650E-1,-2.771288455E-1,2.017114908E-1,1.074158573E1
8.861914270E-1,-3.681085110E-1,-1.717839688E-1,1.059793377E1
8.881904900E-1,-3.154360652E-1,-7.655459642E-1,9.621099472E0
8.901895520E-1,-1.765723825E-1,1.394622475E-1,8.907627106E0
8.921886150E-1,-7.601590455E-2,-2.579752207E-1,1.014303589E1
8.941876770E-1,5.805939063E-2,7.242459804E-2,1.003769016E1
8.961867400E-1,-1.047463268E-1,6.613982320E-1,8.811859131E0
8.981858020E-1,-1.047463268E-1,3.597288132E-1,9.539696693E0
9.001848650E-1,8.678980917E-2,9.157821536E-2,9.333795547E0
9.021839270E-1,5.386953708E-3,2.495955229E-1,9.147047997E0
9.041829900E-1,-5.207388848E-2,-5.261258483E-1,1.244625759E1
9.061820520E-1,-1.191115379E-1,-7.942764163E-1,9.831789017E0
9.081811150E-1,1.298854351E-1,1.054047346E0,6.355408192E0
9.101802290E-1,2.591723204E-1,8.337807655E-1,1.022443867E1
9.121793960E-1,1.681926697E-1,-5.357026458E-1,1.323155594E1
9.141786150E-1,8.678980917E-2,-3.154360652E-1,8.543708801E0
9.161778860E-1,3.166331649E-1,8.050503135E-1,8.462306023E0
9.181772080E-1,1.107318252E-1,6.183025837E-1,1.000895977E1
9.201765830E-1,5.985504249E-4,3.022679687E-1,9.515754700E0
9.221759580E-1,1.011550203E-1,-1.033696532E0,1.079904652E1
9.241753330E-1,2.064998895E-1,9.636662155E-2,1.072243214E1
9.261747080E-1,1.634042710E-1,1.681926697E-1,1.159392166E1
9.281740830E-1,1.496376097E-2,1.441908002E0,5.828683853E0
9.301734580E-1,1.250970364E-1,1.710058570E0,6.302735806E0
9.321728330E-1,1.634042710E-1,7.332242727E-1,1.061708736E1
9.341722080E-1,2.017114908E-1,-4.112041295E-1,1.284848309E1
9.361715830E-1,1.777694821E-1,-1.004966140E0,1.150294209E1
9.381709580E-1,1.538274586E-1,2.256535143E-1,1.050695419E1
9.401703330E-1,-4.728548229E-2,1.628655672E0,6.570886612E0
9.421697080E-1,4.369417951E-2,1.346139908E0,7.614758492E0
9.441690830E-1,-1.334767491E-1,1.681926697E-1,1.084214211E1
9.461684580E-1,-1.095347255E-1,-1.560420990E0,1.345661068E1
9.481678330E-1,1.975216344E-2,-5.692214370E-1,8.333019257E0
9.501672080E-1,2.783259451E-1,1.403600693E0,8.361749649E0
9.521665830E-1,8.678980917E-2,1.264737010E0,1.018613148E1
9.541658540E-1,3.890577704E-2,6.709750295E-1,7.456741333E0
9.561649690E-1,1.059434265E-1,-5.117605925E-1,1.016218948E1
9.581638750E-1,1.155202314E-1,-8.325836658E-1,1.230260563E1
9.601627810E-1,1.634042710E-1,-5.261258483E-1,1.271919632E1
9.621616880E-1,7.721300423E-2,1.221641421E0,7.791929245E0
9.641605940E-1,1.203086376E-1,2.050035238E0,6.977900982E0
9.661595000E-1,2.017114908E-1,1.384447098E0,8.098387718E0
9.681584580E-1,2.974795699E-1,-2.100912035E-1,1.142153931E1
9.701574690E-1,2.064998895E-1,2.932897024E-2,9.343372345E0
9.721565310E-1,4.938040972E-1,9.343371987E-1,9.003395081E0
9.741556460E-1,2.400187254E-1,6.183025837E-1,1.237922001E1
9.761548130E-1,1.155202314E-1,-2.962824702E-1,1.235048962E1
9.781540310E-1,1.298854351E-1,2.208651006E-1,7.586028099E0
9.801533020E-1,1.634042710E-1,1.662174582E0,8.672995567E0
9.821526250E-1,-3.292027488E-2,1.326986313E0,9.678560257E0
9.841520000E-1,-2.723404467E-1,7.092822790E-1,8.371326447E0
9.861514270E-1,-2.100912035E-1,-4.973953962E-1,1.138323212E1
9.881509060E-1,1.203086376E-1,1.975216344E-2,1.089960289E1
9.901504380E-1,1.346738487E-1,1.475426793E0,8.510190010E0
9.921499690E-1,5.327098817E-2,1.044470549E0,8.026560783E0
9.941495000E-1,3.411737457E-2,2.448071241E-1,8.553285599E0
9.961490310E-1,1.634042710E-1,-7.751228213E-1,1.334647751E1
9.981485630E-1,-2.334346622E-2,1.346738487E-1,9.913191795E0
1.000147990E0,-2.244564146E-1,8.289923668E-1,6.120776653E0
1.002147156E0,-2.340332121E-1,-5.740098357E-1,1.257075596E1
1.004146115E0,-3.298012912E-1,-4.782418013E-1,1.170884323E1
1.006145073E0,-2.819172442E-1,4.369417951E-2,7.801506042E0
1.008144031E0,-2.962824702E-1,9.343371987E-1,7.423222542E0
1.010142990E0,-2.292448133E-1,9.056068063E-1,1.038245583E1
1.012141948E0,-2.005143911E-1,2.926911712E-1,1.177588081E1
1.014140906E0,-3.345896900E-1,7.475894690E-1,6.915651798E0
1.016139917E0,-4.686649740E-1,9.917980433E-1,6.724115372E0
1.018138979E0,-3.489548862E-1,-1.033696532E0,1.544379807E1
1.020138094E0,-4.830302000E-1,-5.261258483E-1,1.114381218E1
1.022137261E0,-4.734533727E-1,4.171896577E-1,8.074444771E0
1.024136531E0,-3.441664875E-1,6.087257862E-1,1.007120991E1
1.026135906E0,-3.345896900E-1,1.456273198E0,7.878120899E0
1.028135333E0,-1.957259923E-1,7.332242727E-1,8.400056839E0
1.030134813E0,-1.143231317E-1,-5.835866928E-1,1.017176628E1
1.032134344E0,-2.100912035E-1,-1.234809518E0,1.305917358E1
1.034133927E0,-2.148796022E-1,2.454056777E-2,9.166201591E0
1.036133563E0,-2.627636492E-1,4.076128304E-1,9.285911560E0
1.038133250E0,-1.717839688E-1,6.278793812E-1,9.185355186E0
1.040132938E0,-2.483984232E-1,1.442506462E-1,1.107677460E1
1.042132625E0,-3.058592677E-1,8.481459618E-1,7.246051311E0
1.044132313E0,-2.483984232E-1,9.774328470E-1,9.702502251E0
1.046131948E0,-1.622071713E-1,1.030105233E0,9.520543098E0
1.048131375E0,8.200141042E-2,-2.005143911E-1,1.048301220E1
1.050130802E0,-8.559270948E-2,-7.655459642E-1,1.077989292E1
1.052130177E0,-2.914940715E-1,-3.250128925E-1,1.237922001E1
1.054129396E0,-4.638765752E-1,1.398812294E0,7.389703751E0
1.056128615E0,-5.309142470E-1,4.076128304E-1,7.815871239E0
1.058127833E0,-5.069721937E-1,-2.436100245E-1,1.071764374E1
1.060127052E0,-3.441664875E-1,2.591723204E-1,1.124436855E1
1.062126271E0,-6.841431260E-1,1.111508131E0,8.974664688E0
1.064125490E0,-4.495113790E-1,9.103952050E-1,7.514202118E0
1.066124708E0,-4.495113790E-1,1.394622475E-1,1.009036350E1
1.068123927E0,-4.447229803E-1,1.068412542E0,8.816647530E0
1.070123146E0,-3.345896900E-1,-5.596446395E-1,1.317888355E1
1.072122365E0,-5.117605925E-1,6.470330358E-1,9.305065155E0
1.074121583E0,-5.261258483E-1,9.917980433E-1,7.274781704E0
1.076120802E0,-5.117605925E-1,1.015740037E0,7.332242489E0
1.078120021E0,-4.303577542E-1,2.879027426E-1,1.091396809E1
1.080119240E0,-4.973953962E-1,-7.416039705E-1,1.181897640E1
1.082118458E0,-3.824737072E-1,-2.436100245E-1,1.157476807E1
1.084117677E0,-1.430535465E-1,-6.643909961E-2,9.601945877E0
1.086116896E0,-1.717839688E-1,-3.345896900E-1,9.118317604E0
1.088116011E0,-3.776853085E-1,2.112883031E-1,1.148857689E1
1.090115021E0,-3.250128925E-1,1.465849996E0,7.384915352E0
1.092114031E0,-6.643909961E-2,1.609502077E0,5.412093163E0
1.094113042E0,1.346738487E-1,-8.230068088E-1,1.317888355E1
1.096111896E0,-3.770867735E-2,-9.235633016E-1,1.232654762E1
1.098110750E0,-3.292027488E-2,1.777694821E-1,8.543708801E0
1.100109604E0,1.394622475E-1,1.441908002E0,8.088809967E0
1.102108458E0,1.298854351E-1,8.768763542E-1,1.067933655E1
1.104107313E0,-1.286883354E-1,-6.165069342E-2,1.061708736E1
1.106106167E0,-4.728548229E-2,6.039373875E-1,7.399280548E0
1.108105021E0,2.543839216E-1,8.864531517E-1,9.084798813E0
1.110103927E0,1.777694821E-1,2.932897024E-2,1.213022327E1
1.112102886E0,2.639607489E-1,3.501519859E-1,8.069656372E0
1.114101896E0,5.129576921E-1,8.577227592E-1,8.749609947E0
1.116100958E0,4.890156984E-1,-4.112041295E-1,1.349970627E1
1.118100073E0,4.698620737E-1,-3.770867735E-2,1.068891335E1
1.120099188E0,5.656301379E-1,1.413177609E0,7.720103264E0
1.122098302E0,4.459200799E-1,1.092354536E0,9.094375610E0
1.124097417E0,2.352303118E-1,3.693056107E-1,1.045907021E1
1.126096531E0,2.304419130E-1,-3.441664875E-1,9.788693428E0
1.128095646E0,3.890577704E-2,7.140706778E-1,8.423998833E0
1.130094761E0,3.262099922E-1,1.188122630E0,7.748833656E0
1.132093875E0,3.262099922E-1,1.825578809E-1,1.140238571E1
1.134092990E0,3.740940094E-1,-8.230068088E-1,1.203924370E1
1.136092104E0,3.309983909E-1,-1.871667147E0,1.162744045E1
1.138091219E0,4.076128304E-1,1.097142935E0,6.709750175E0
1.140090333E0,3.262099922E-1,1.743577361E0,9.118317604E0
1.142089448E0,3.884592354E-1,7.715315223E-1,7.040150166E0
1.144088458E0,1.250970364E-1,-3.872621357E-1,1.242231560E1
1.146087469E0,2.017114908E-1,-1.455076098E0,1.313099957E1
1.148086427E0,-1.855506375E-2,3.932476342E-1,7.590816498E0
1.150085386E0,-1.376665942E-2,1.757942557E0,6.590040207E0
1.152084344E0,2.454056777E-2,1.322197914E0,1.001374817E1
1.154083302E0,-8.559270948E-2,-1.717839688E-1,1.269046593E1
1.156082261E0,-1.622071713E-1,-1.967435241E0,1.148857689E1
1.158081219E0,1.011550203E-1,1.155202314E-1,1.004247856E1
1.160080177E0,-5.686229095E-2,1.944690347E0,7.495048523E0
1.162079136E0,-1.478419602E-1,1.264737010E0,5.742492676E0
1.164078094E0,1.975216344E-2,-8.852560520E-1,1.065539455E1
1.166077052E0,-4.189853091E-3,-1.445499301E0,1.448611736E1
1.168076011E0,-2.005143911E-1,-2.771288455E-1,9.850942612E0
1.170074969E0,-1.047463268E-1,8.672995567E-1,6.642712593E0
1.172073927E0,-7.601590455E-2,1.092354536E0,7.279570103E0
1.174072886E0,6.763619930E-2,-2.531868219E-1,1.004726696E1
1.176071844E0,1.298854351E-1,-1.857301950E0,1.159392166E1
1.178070802E0,2.639607489E-1,-1.857301950E0,1.391150856E1
1.180069761E0,-4.728548229E-2,-1.622071713E-1,9.156624794E0
1.182068719E0,-6.165069342E-2,1.125873327E0,4.296394825E0
1.184067677E0,2.831143439E-1,5.321113467E-1,8.725667953E0
1.186066636E0,4.171896577E-1,-1.608304977E0,1.445259857E1
1.188065594E0,3.597288132E-1,-9.522937536E-1,7.902062893E0
1.190064552E0,4.602852762E-1,-1.622071713E-1,9.458293915E0
1.192063511E0,3.884592354E-1,6.518214345E-1,9.487024307E0
1.194062469E0,4.794389009E-1,-9.038111567E-2,1.024838066E1
1.196061427E0,2.495955229E-1,6.661866307E-1,5.991489887E0
1.198060386E0,4.315548539E-1,-8.373720646E-1,1.156997967E1
1.200059344E0,3.022679687E-1,-1.115099430E0,1.323155594E1
1.202058302E0,2.974795699E-1,4.171896577E-1,6.479907036E0
1.204057261E0,4.315548539E-1,-6.643909961E-2,9.309853554E0
1.206056219E0,4.219780564E-1,3.890577704E-2,1.134971333E1
1.208055229E0,4.028244317E-1,2.064998895E-1,8.256404877E0
1.210054292E0,3.405751884E-1,-1.191115379E-1,7.887697697E0
1.212053406E0,2.926911712E-1,-2.336142302E0,1.454836655E1
1.214052573E0,3.118447661E-1,2.160767019E-1,1.068412495E1
1.216051792E0,5.177460909E-1,1.499368787E0,4.353855610E0
1.218051063E0,3.166331649E-1,6.135141850E-1,7.126341343E0
1.220050386E0,3.405751884E-1,-2.934692621E0,1.679412842E1
1.222049708E0,2.256535143E-1,-2.125452518E0,1.070327854E1
1.224049031E0,2.974795699E-1,4.363432527E-1,8.591592789E0
1.226048354E0,4.369417951E-2,8.098387122E-1,8.237251282E0
1.228047677E0,-1.095347255E-1,-1.376665942E-2,8.040925980E0
1.230046792E0,2.932897024E-2,-1.866878748E0,1.117733097E1
1.232045750E0,1.203086376E-1,-2.154182911E0,1.177109241E1
1.234044708E0,3.411737457E-2,-1.364096403E0,1.128746414E1
1.236043667E0,-1.717839688E-1,-2.867056429E-1,7.241262913E0
1.238042625E0,-1.376665942E-2,-2.675520480E-1,7.346607685E0
1.240041583E0,5.805939063E-2,-1.479018092E0,1.363856983E1
1.242040542E0,-4.064157307E-1,-1.909375787E-1,7.624335289E0
1.244039500E0,-2.675520480E-1,-3.872621357E-1,7.672219276E0
1.246038458E0,-1.143231317E-1,-1.373673201E0,1.095227528E1
1.248037417E0,-1.430535465E-1,-2.953846455E0,1.297298145E1
1.250036375E0,-2.436100245E-1,-2.489371300E0,1.051653099E1
1.252035333E0,1.975216344E-2,-6.889315248E-1,8.778340340E0
1.254034292E0,1.250970364E-1,4.938040972E-1,6.216544628E0
1.256033250E0,3.890577704E-2,-1.478419602E-1,6.728903770E0
1.258032208E0,2.735375464E-1,-3.193266630E0,1.341830349E1
1.260031167E0,2.256535143E-1,-3.380014181E0,1.340393829E1
1.262030125E0,2.926911712E-1,-1.206079125E0,1.092833328E1
1.264029083E0,3.309983909E-1,-2.100912035E-1,6.599617004E0
1.266028042E0,4.698620737E-1,-1.866878748E0,9.266757965E0
1.268027052E0,3.740940094E-1,-1.253963113E0,1.041118622E1
1.270026063E0,4.459200799E-1,-1.004966140E0,9.549273491E0
1.272025125E0,3.262099922E-1,-1.287482023E0,8.208520889E0
1.274024240E0,4.507084787E-1,-1.713649869E0,9.951498985E0
1.276023406E0,3.740940094E-1,-2.096722126E0,1.219726086E1
1.278022573E0,2.735375464E-1,-1.502960086E0,8.735244751E0
1.280021740E0,3.118447661E-1,-4.830302000E-1,6.676231384E0
1.282020906E0,5.416881442E-1,-1.076792240E0,1.196262836E1
1.284020073E0,3.788824081E-1,-1.828571558E0,1.000895977E1
1.286019240E0,3.740940094E-1,-2.374449492E0,1.161786366E1
1.288018406E0,2.831143439E-1,-1.608304977E0,9.889249802E0
1.290017573E0,2.304419130E-1,-1.855506375E-2,7.528567314E0
1.292016740E0,3.645172119E-1,4.602852762E-1,7.404068947E0
1.294015906E0,6.135141850E-1,-1.905186057E0,8.835801125E0
1.296015073E0,5.177460909E-1,-3.126228809E0,1.172799683E1
1.298014240E0,5.177460909E-1,-3.241150618E0,1.380137539E1
1.300013406E0,4.746504724E-1,-1.297058821E0,6.877344608E0
1.302012573E0,4.746504724E-1,9.157821536E-2,6.077681065E0
1.304011740E0,2.352303118E-1,-7.990648150E-1,8.730456352E0
1.306010958E0,1.298854351E-1,-3.011307240E0,1.115338898E1
1.308010229E0,1.921346933E-1,-3.629011154E0,1.337041950E1
1.310009552E0,7.721300423E-2,-2.120664120E0,1.143111610E1
1.312008875E0,-3.292027488E-2,-8.852560520E-1,6.206967831E0
1.314008198E0,9.636662155E-2,-8.230068088E-1,7.734468460E0
1.316007521E0,-3.292027488E-2,-1.321000814E0,1.049258900E1
1.318006844E0,1.298854351E-1,-1.340154409E0,8.127118111E0
1.320006167E0,2.639607489E-1,-2.503736496E0,9.989806175E0
1.322005490E0,3.884592354E-1,-3.878008127E0,1.584123516E1
1.324004813E0,1.298854351E-1,-1.814206362E0,9.774328232E0
1.326004136E0,8.678980917E-2,-5.692214370E-1,6.767210960E0
1.328003458E0,1.538274586E-1,-4.303577542E-1,8.246828079E0
1.330002781E0,3.405751884E-1,-1.900397658E0,1.190037918E1
1.332002104E0,3.309983909E-1,-1.431134105E0,1.083735371E1
1.334001427E0,2.926911712E-1,-1.143829823E0,9.329007149E0
1.336000750E0,3.022679687E-1,-1.052850246E0,9.937133789E0
1.338000073E0,3.070563674E-1,-1.651400566E0,1.180939960E1
1.339999292E0,3.262099922E-1,-2.483984232E-1,8.912415504E0
1.341998406E0,1.777694821E-1,-1.765723825E-1,8.333019257E0
1.343997521E0,7.721300423E-2,-1.732803464E0,9.922768593E0
1.345996636E0,3.411737457E-2,-1.641823769E0,1.089481449E1
1.347995750E0,1.298854351E-1,1.496376097E-2,9.965864182E0
1.349994865E0,-4.249707982E-2,-9.427168965E-1,7.193378925E0
1.351993979E0,1.681926697E-1,-1.517325282E0,9.611522675E0
1.353993094E0,1.969230920E-1,-3.058592677E-1,9.376891136E0
1.355992208E0,1.538274586E-1,-4.207809567E-1,9.151836395E0
1.357991323E0,1.975216344E-2,-1.948281646E0,1.047343540E1
1.359990438E0,-3.292027488E-2,-3.193266630E0,1.147421169E1
1.361989552E0,1.496376097E-2,-1.182137132E0,1.173278522E1
1.363988667E0,-8.080431074E-2,2.304419130E-1,8.926780701E0
1.365987781E0,-4.728548229E-2,-1.000177741E0,9.956287384E0
1.367986896E0,-1.191115379E-1,-2.307411909E0,8.285135269E0
1.369986011E0,1.059434265E-1,9.056068063E-1,7.399280548E0
1.371985125E0,7.242459804E-2,8.768763542E-1,7.806294441E0
1.373984240E0,-1.334767491E-1,-1.062427044E0,9.099164009E0
1.375983354E0,7.721300423E-2,-3.317764997E0,1.178545761E1
1.377982469E0,2.400187254E-1,-3.131017208E0,1.388756657E1
1.379981583E0,1.825578809E-1,-2.024896145E0,1.125873375E1
1.381980698E0,1.298854351E-1,-1.273116708E0,8.055291176E0
1.383979865E0,1.681926697E-1,-2.005143911E-1,7.054515362E0
1.385979031E0,2.400187254E-1,-1.014542937E0,8.347384453E0
1.387978198E0,1.729810685E-1,-1.565209389E0,9.343372345E0
1.389977365E0,5.416881442E-1,-2.680907249E0,1.264258194E1
1.391976531E0,3.884592354E-1,-1.474229693E0,1.221641445E1
1.393975698E0,1.921346933E-1,-1.622071713E-1,7.241262913E0
1.395974865E0,2.064998895E-1,-1.818994761E0,9.578003883E0
1.397974031E0,1.250970364E-1,-1.431134105E0,9.755174637E0
1.399973042E0,4.219780564E-1,-5.883750916E-1,1.111987019E1
1.401972052E0,4.842272997E-1,-5.500678420E-1,9.022548676E0
1.403970906E0,2.160767019E-1,-2.072780132E0,1.003769016E1
1.405969761E0,1.975216344E-2,-1.977012038E0,9.779116631E0
1.407968615E0,8.678980917E-2,-1.239597917E0,7.744045258E0
1.409967469E0,9.636662155E-2,1.250970364E-1,9.841365814E0
1.411966323E0,8.678980917E-2,2.064998895E-1,9.482235909E0
1.413965177E0,8.678980917E-2,-2.829347849E0,7.782352448E0
1.415964031E0,2.831143439E-1,-4.189254284E0,1.051174259E1
1.417962938E0,8.200141042E-2,-1.287482023E0,1.135450172E1
1.419961896E0,-1.382651478E-1,-5.207388848E-2,1.236964321E1
1.421960906E0,-3.776853085E-1,-1.052850246E0,7.538144112E0
1.423959969E0,-2.675520480E-1,-4.294599533E0,1.029147625E1
1.425959031E0,-2.627636492E-1,-2.848501444E0,9.956287384E0
1.427958094E0,-1.286883354E-1,-2.531868219E-1,7.930793285E0
1.429957208E0,-8.559270948E-2,-3.537433147E-1,7.499836922E0
1.431956323E0,-9.516951442E-2,-1.143829823E0,7.854178905E0
1.433955438E0,1.011550203E-1,-3.523666382E0,1.244625759E1
1.435954552E0,2.400187254E-1,-2.939481020E0,1.341830349E1
1.437953667E0,2.974795699E-1,-1.359308004E0,9.056067467E0
1.439952781E0,2.735375464E-1,-1.641823769E0,9.410409927E0
1.441951896E0,2.400187254E-1,-1.804629564E0,1.063145256E1
1.443951011E0,1.155202314E-1,-1.713649869E0,1.037766743E1
1.445950125E0,8.678980917E-2,-7.080851793E-1,7.667430878E0
1.447949188E0,2.160767019E-1,-8.565256596E-1,7.648277283E0
1.449948250E0,2.591723204E-1,-2.269104719E0,9.295488358E0
1.451947208E0,2.831143439E-1,-2.249951124E0,1.254681396E1
1.453946167E0,3.645172119E-1,-1.206079125E0,1.087087250E1
1.455945073E0,1.681926697E-1,-1.780687571E0,9.041702271E0
1.457943979E0,2.208651006E-1,-2.015319347E0,8.069656372E0
1.459942833E0,3.597288132E-1,-2.053626537E0,9.640253067E0
1.461941583E0,2.926911712E-1,-1.708861470E0,9.956287384E0
1.463940177E0,5.704185367E-1,-2.307411909E0,1.139759731E1
1.465938771E0,3.932476342E-1,-2.388814688E0,9.999382973E0
1.467937365E0,2.926911712E-1,-2.168548107E0,9.817423820E0
1.469935958E0,2.926911712E-1,-8.804676533E-1,7.226897717E0
1.471934552E0,4.507084787E-1,-1.790264368E0,9.247604370E0
1.473933198E0,7.858967185E-1,-3.068768024E0,1.149336529E1
1.475931896E0,5.560533404E-1,-2.973000050E0,1.128746414E1
1.477930646E0,4.890156984E-1,-2.264316320E0,1.038245583E1
1.479929448E0,3.884592354E-1,-2.058414936E0,8.443152428E0
1.481928354E0,3.932476342E-1,-1.287482023E0,8.107964516E0
1.483927313E0,3.262099922E-1,-1.148618221E0,8.352172852E0
1.485926323E0,5.321113467E-1,-2.795829058E0,1.066497135E1
1.487925386E0,6.661866307E-1,-2.336142302E0,1.145026970E1
1.489924500E0,5.321113467E-1,-1.795052767E0,9.726444244E0
1.491923667E0,2.304419130E-1,-2.489371300E0,8.519766808E0
1.493922886E0,3.597288132E-1,-2.360084295E0,9.592369080E0
1.495922104E0,2.448071241E-1,-2.719214678E0,1.075595093E1
1.497921323E0,4.411316514E-1,-2.585139275E0,1.087566090E1
1.499920542E0,2.112883031E-1,-1.948281646E0,8.955511093E0
1.501919761E0,1.011550203E-1,-1.833359957E0,6.518214226E0
1.503918979E0,2.160767019E-1,-2.709637880E0,9.381679535E0
1.505917886E0,3.740940094E-1,-3.863642931E0,1.389235497E1
1.507916792E0,4.171896577E-1,-3.159747601E0,1.153167248E1
1.509915698E0,3.453635871E-1,-2.158971310E0,7.518990517E0
1.511914604E0,6.039373875E-1,-1.368884802E0,7.049726963E0
1.513913511E0,6.039373875E-1,-1.929128051E0,8.548497200E0
1.515912417E0,6.661866307E-1,-3.882796526E0,1.268567753E1
1.517911323E0,5.321113467E-1,-3.624222755E0,1.063624096E1
1.519910229E0,5.991489887E-1,-3.040037632E0,1.044470501E1
1.521909136E0,7.140706778E-1,-2.771887064E0,9.051279068E0
1.523908042E0,7.092822790E-1,-2.838924646E0,8.912415504E0
1.525906948E0,7.523778677E-1,-2.498948097E0,7.801506042E0
1.527905854E0,6.901286244E-1,-3.940257549E0,1.073679733E1
1.529904761E0,7.715315223E-1,-4.012083530E0,1.306875038E1
1.531903667E0,7.092822790E-1,-3.284246206E0,8.759186745E0
1.533902573E0,7.475894690E-1,-2.872443438E0,8.021772385E0
1.535901479E0,7.571662664E-1,-3.116652012E0,9.343372345E0
1.537900386E0,8.433575630E-1,-3.131017208E0,1.071285534E1
