"Time (s)","Acceleration x (m/s^2)","Acceleration y (m/s^2)","Acceleration z (m/s^2)"
1.636151900E-2,1.442506462E-1,2.687491477E-1,9.989806175E0
1.835907100E-2,1.921346933E-1,1.873462796E-1,9.889249802E0
2.035662400E-2,2.160767019E-1,1.298854351E-1,9.812635422E0
2.235412400E-2,2.543839216E-1,6.763619930E-2,9.812635422E0
2.435157100E-2,2.735375464E-1,7.242459804E-2,9.860519409E0
2.634901900E-2,3.022679687E-1,1.059434265E-1,9.831789017E0
2.834646700E-2,3.118447661E-1,1.538274586E-1,9.831789017E0
3.034391500E-2,3.262099922E-1,2.017114908E-1,9.855731010E0
3.234136300E-2,3.549404144E-1,1.921346933E-1,9.846154213E0
3.433881100E-2,3.884592354E-1,1.969230920E-1,9.894038200E0
3.633631100E-2,4.076128304E-1,2.160767019E-1,9.951498985E0
3.833386300E-2,4.363432527E-1,2.448071241E-1,9.937133789E0
4.033146700E-2,4.267664552E-1,2.400187254E-1,9.927556992E0
4.232912400E-2,4.124012291E-1,2.352303118E-1,9.927556992E0
4.432683200E-2,4.124012291E-1,2.064998895E-1,9.917980194E0
4.632459200E-2,4.028244317E-1,2.160767019E-1,9.903614998E0
4.832240500E-2,3.980360329E-1,2.112883031E-1,9.879673004E0
5.032026900E-2,3.549404144E-1,2.112883031E-1,9.860519409E0
5.231818600E-2,3.022679687E-1,1.825578809E-1,9.831789017E0
5.431615500E-2,2.591723204E-1,1.729810685E-1,9.783905029E0
5.631412400E-2,2.400187254E-1,1.681926697E-1,9.793481827E0
5.831209200E-2,2.112883031E-1,1.490390599E-1,9.793481827E0
6.031006100E-2,1.729810685E-1,1.346738487E-1,9.769539833E0
6.230803000E-2,1.346738487E-1,1.346738487E-1,9.750386238E0
6.430599900E-2,1.107318252E-1,1.346738487E-1,9.721655846E0
6.630396700E-2,8.678980917E-2,1.203086376E-1,9.716867447E0
6.830193600E-2,4.369417951E-2,1.155202314E-1,9.716867447E0
7.029990500E-2,2.454056777E-2,1.059434265E-1,9.702502251E0
7.229787400E-2,1.496376097E-2,8.200141042E-2,9.645041466E0
7.429584200E-2,-1.855506375E-2,7.242459804E-2,9.625887871E0
7.629381100E-2,-3.292027488E-2,9.157821536E-2,9.611522675E0
7.829157100E-2,-5.686229095E-2,7.242459804E-2,9.601945877E0
8.028933200E-2,-5.686229095E-2,9.636662155E-2,9.597157478E0
8.228709200E-2,-5.207388848E-2,6.763619930E-2,9.573215485E0
8.428469600E-2,-5.207388848E-2,4.369417951E-2,9.568427086E0
8.628230100E-2,-6.165069342E-2,2.932897024E-2,9.573215485E0
8.827990500E-2,-5.207388848E-2,2.932897024E-2,9.558850288E0
9.027750900E-2,-7.601590455E-2,2.454056777E-2,9.534908295E0
9.227511300E-2,-9.516951442E-2,2.454056777E-2,9.520543098E0
9.427271700E-2,-1.143231317E-1,2.932897024E-2,9.530119896E0
9.627032100E-2,-1.286883354E-1,1.975216344E-2,9.549273491E0
9.826792600E-2,-1.334767491E-1,1.975216344E-2,9.539696693E0
1.002655300E-1,-1.622071713E-1,1.975216344E-2,9.534908295E0
1.022631340E-1,-1.622071713E-1,4.369417951E-2,9.549273491E0
1.042607380E-1,-1.574187577E-1,2.932897024E-2,9.539696693E0
1.062583420E-1,-1.622071713E-1,5.805939063E-2,9.534908295E0
1.082559460E-1,-1.478419602E-1,3.411737457E-2,9.530119896E0
1.102535510E-1,-1.334767491E-1,4.848258570E-2,9.506177902E0
1.122511030E-1,-9.995792061E-2,5.805939063E-2,9.515754700E0
1.142486550E-1,-6.643909961E-2,5.805939063E-2,9.506177902E0
1.162462070E-1,-2.813187055E-2,4.848258570E-2,9.487024307E0
1.182437590E-1,5.985504249E-4,5.327098817E-2,9.463082314E0
1.202413110E-1,2.454056777E-2,3.890577704E-2,9.448717117E0
1.222388630E-1,5.327098817E-2,4.369417951E-2,9.453505516E0
1.242364150E-1,6.284779310E-2,2.454056777E-2,9.448717117E0
1.262339670E-1,6.763619930E-2,1.975216344E-2,9.443928719E0
1.282315710E-1,9.157821536E-2,1.496376097E-2,9.453505516E0
1.302292280E-1,8.678980917E-2,3.411737457E-2,9.467870712E0
1.322269360E-1,7.242459804E-2,2.454056777E-2,9.463082314E0
1.342246960E-1,8.200141042E-2,1.975216344E-2,9.434351921E0
1.362225090E-1,6.763619930E-2,3.411737457E-2,9.434351921E0
1.382203210E-1,8.200141042E-2,4.369417951E-2,9.424775124E0
1.402181340E-1,8.200141042E-2,3.890577704E-2,9.443928719E0
1.422159460E-1,9.157821536E-2,3.411737457E-2,9.429563522E0
1.442137590E-1,8.678980917E-2,2.454056777E-2,9.424775124E0
1.462115710E-1,1.011550203E-1,3.411737457E-2,9.429563522E0
1.482093840E-1,8.200141042E-2,1.975216344E-2,9.434351921E0
1.502071960E-1,7.242459804E-2,-4.189853091E-3,9.405621529E0
1.522050090E-1,7.721300423E-2,-4.189853091E-3,9.396044731E0
1.542028210E-1,6.763619930E-2,5.985504249E-4,9.439140320E0
1.562006340E-1,4.369417951E-2,5.386953708E-3,9.443928719E0
1.581984460E-1,1.496376097E-2,-4.189853091E-3,9.453505516E0
1.601962590E-1,2.932897024E-2,1.496376097E-2,9.482235909E0
1.621940710E-1,5.386953708E-3,3.890577704E-2,9.506177902E0
1.641918840E-1,3.411737457E-2,5.327098817E-2,9.515754700E0
1.661897490E-1,2.454056777E-2,3.890577704E-2,9.549273491E0
1.681876650E-1,5.327098817E-2,4.369417951E-2,9.573215485E0
1.701856340E-1,7.242459804E-2,4.369417951E-2,9.601945877E0
1.721836030E-1,8.200141042E-2,6.763619930E-2,9.630676270E0
1.741815710E-1,1.203086376E-1,8.200141042E-2,9.635464668E0
1.761795400E-1,1.250970364E-1,7.242459804E-2,9.640253067E0
1.781775090E-1,1.490390599E-1,5.805939063E-2,9.625887871E0
1.801754780E-1,1.490390599E-1,6.284779310E-2,9.621099472E0
1.821734460E-1,1.490390599E-1,8.200141042E-2,9.606734276E0
1.841714150E-1,1.538274586E-1,5.805939063E-2,9.592369080E0
1.861693840E-1,1.586158574E-1,5.805939063E-2,9.597157478E0
1.881671440E-1,1.394622475E-1,6.763619930E-2,9.611522675E0
1.901649050E-1,1.155202314E-1,5.805939063E-2,9.645041466E0
1.921626650E-1,9.157821536E-2,7.242459804E-2,9.640253067E0
1.941603740E-1,7.242459804E-2,9.157821536E-2,9.659406662E0
1.961580820E-1,4.848258570E-2,8.678980917E-2,9.673771858E0
1.981557900E-1,5.327098817E-2,1.011550203E-1,9.707290649E0
2.001534990E-1,3.411737457E-2,1.250970364E-1,9.712079048E0
2.021512070E-1,4.848258570E-2,1.107318252E-1,9.716867447E0
2.041489150E-1,5.327098817E-2,1.011550203E-1,9.721655846E0
2.061466240E-1,7.242459804E-2,1.250970364E-1,9.721655846E0
2.081443320E-1,8.678980917E-2,1.011550203E-1,9.726444244E0
2.101420400E-1,8.678980917E-2,1.155202314E-1,9.712079048E0
2.121397490E-1,1.059434265E-1,1.107318252E-1,9.702502251E0
2.141374570E-1,1.107318252E-1,1.011550203E-1,9.702502251E0
2.161351650E-1,1.298854351E-1,1.059434265E-1,9.707290649E0
2.181328740E-1,1.394622475E-1,8.200141042E-2,9.707290649E0
2.201305820E-1,1.634042710E-1,1.059434265E-1,9.726444244E0
2.221282900E-1,1.490390599E-1,7.721300423E-2,9.750386238E0
2.241259990E-1,1.681926697E-1,8.200141042E-2,9.769539833E0
2.261237070E-1,1.825578809E-1,1.059434265E-1,9.803058624E0
2.281214150E-1,1.729810685E-1,1.059434265E-1,9.841365814E0
2.301191240E-1,1.873462796E-1,1.394622475E-1,9.860519409E0
2.321168320E-1,1.921346933E-1,1.586158574E-1,9.884461403E0
2.341145400E-1,1.777694821E-1,1.729810685E-1,9.870096207E0
2.361122490E-1,1.825578809E-1,1.969230920E-1,9.860519409E0
2.381099570E-1,1.634042710E-1,2.112883031E-1,9.841365814E0
2.401076650E-1,1.442506462E-1,2.256535143E-1,9.850942612E0
2.421053740E-1,1.346738487E-1,2.448071241E-1,9.822212219E0
2.441031340E-1,1.059434265E-1,2.448071241E-1,9.807847023E0
2.461009460E-1,1.059434265E-1,2.352303118E-1,9.803058624E0
2.480988110E-1,9.157821536E-2,2.448071241E-1,9.803058624E0
2.500967280E-1,9.636662155E-2,2.639607489E-1,9.750386238E0
2.520946440E-1,1.107318252E-1,4.028244317E-1,9.736021042E0
2.540925610E-1,1.346738487E-1,6.183025837E-1,9.716867447E0
2.560904780E-1,1.586158574E-1,6.853402257E-1,9.788693428E0
2.580883940E-1,1.490390599E-1,6.709750295E-1,9.827000618E0
2.600863110E-1,1.250970364E-1,6.470330358E-1,9.889249802E0
2.620842280E-1,1.203086376E-1,6.326677799E-1,9.927556992E0
2.640820400E-1,8.678980917E-2,6.278793812E-1,9.970652580E0
2.660798530E-1,4.369417951E-2,5.512649417E-1,9.994594574E0
2.680776650E-1,2.932897024E-2,5.129576921E-1,1.002332497E1
2.700754780E-1,2.454056777E-2,4.985924959E-1,1.002811337E1
2.720732900E-1,2.932897024E-2,4.602852762E-1,1.001374817E1
2.740709990E-1,2.454056777E-2,4.315548539E-1,1.002332497E1
2.760687070E-1,6.284779310E-2,4.219780564E-1,1.000895977E1
2.780664150E-1,6.284779310E-2,4.315548539E-1,9.989806175E0
2.800641240E-1,7.721300423E-2,4.267664552E-1,9.941922188E0
2.820618320E-1,6.763619930E-2,4.315548539E-1,9.941922188E0
2.840595400E-1,8.678980917E-2,4.554968774E-1,9.908403397E0
2.860572490E-1,1.011550203E-1,4.602852762E-1,9.927556992E0
2.880549570E-1,7.721300423E-2,4.507084787E-1,9.932345390E0
2.900526650E-1,7.242459804E-2,4.315548539E-1,9.970652580E0
2.920504260E-1,6.284779310E-2,4.411316514E-1,9.937133789E0
2.940482380E-1,3.890577704E-2,4.602852762E-1,9.922768593E0
2.960461030E-1,2.932897024E-2,4.794389009E-1,9.898826599E0
2.980440190E-1,-8.978256024E-3,4.938040972E-1,9.898826599E0
3.000419880E-1,5.985504249E-4,5.464765429E-1,9.903614998E0
3.020400090E-1,-2.813187055E-2,5.799953341E-1,9.922768593E0
3.040380820E-1,-1.855506375E-2,6.135141850E-1,9.946710587E0
3.060361550E-1,-2.334346622E-2,6.470330358E-1,9.937133789E0
3.080342280E-1,-2.813187055E-2,6.853402257E-1,9.965864182E0
3.100323010E-1,-1.855506375E-2,7.140706778E-1,9.941922188E0
3.120303740E-1,-4.249707982E-2,7.715315223E-1,9.908403397E0
3.140284460E-1,-4.728548229E-2,7.811083198E-1,9.870096207E0
3.160265190E-1,-3.770867735E-2,8.289923668E-1,9.860519409E0
3.180245920E-1,-1.855506375E-2,8.146271110E-1,9.884461403E0
3.200226650E-1,-5.207388848E-2,8.002619147E-1,9.908403397E0
3.220207380E-1,5.985504249E-4,8.194155097E-1,9.874884605E0
3.240184460E-1,-4.189853091E-3,7.906851172E-1,9.889249802E0
3.260161550E-1,5.386953708E-3,8.529343605E-1,9.827000618E0
3.280138630E-1,3.890577704E-2,8.577227592E-1,9.812635422E0
3.300115710E-1,3.411737457E-2,8.720879555E-1,9.874884605E0
3.320092800E-1,3.411737457E-2,8.816647530E-1,9.846154213E0
3.340069880E-1,1.496376097E-2,8.625111580E-1,9.946710587E0
3.360046960E-1,4.369417951E-2,8.672995567E-1,9.999382973E0
3.380024050E-1,3.890577704E-2,8.146271110E-1,9.999382973E0
3.400001130E-1,1.975216344E-2,8.146271110E-1,9.941922188E0
3.419978210E-1,1.017535757E-2,7.715315223E-1,9.855731010E0
3.439955300E-1,4.369417951E-2,7.380126715E-1,9.850942612E0
3.459932380E-1,1.017535757E-2,6.470330358E-1,9.937133789E0
3.479909460E-1,8.200141042E-2,6.470330358E-1,9.884461403E0
3.499886550E-1,8.200141042E-2,5.895721912E-1,9.855731010E0
3.519863630E-1,7.721300423E-2,5.129576921E-1,9.817423820E0
3.539840710E-1,5.327098817E-2,4.698620737E-1,9.726444244E0
3.559817800E-1,4.848258570E-2,4.171896577E-1,9.635464668E0
3.579794880E-1,2.454056777E-2,4.028244317E-1,9.573215485E0
3.599771960E-1,-8.978256024E-3,3.788824081E-1,9.573215485E0
3.619749050E-1,-2.334346622E-2,4.171896577E-1,9.482235909E0
3.639726130E-1,-4.189853091E-3,4.028244317E-1,9.501389503E0
3.659701650E-1,-2.334346622E-2,3.405751884E-1,9.654618263E0
3.679677170E-1,1.496376097E-2,2.974795699E-1,9.779116631E0
3.699652690E-1,5.386953708E-3,2.400187254E-1,9.769539833E0
3.719628210E-1,-3.292027488E-2,1.442506462E-1,9.798270226E0
3.739603740E-1,-4.249707982E-2,9.157821536E-2,9.803058624E0
3.759579260E-1,-3.292027488E-2,1.490390599E-1,9.673771858E0
3.779555300E-1,-2.813187055E-2,1.873462796E-1,9.554061890E0
3.799531860E-1,1.975216344E-2,2.304419130E-1,9.501389503E0
3.819508940E-1,2.932897024E-2,2.831143439E-1,9.510966301E0
3.839486550E-1,2.932897024E-2,3.070563674E-1,9.558850288E0
3.859464670E-1,2.454056777E-2,3.357867897E-1,9.558850288E0
3.879442800E-1,6.763619930E-2,3.788824081E-1,9.544485092E0
3.899420920E-1,7.721300423E-2,3.980360329E-1,9.525331497E0
3.919399050E-1,1.346738487E-1,4.315548539E-1,9.625887871E0
3.939377170E-1,1.729810685E-1,4.076128304E-1,9.759963036E0
3.959355300E-1,1.729810685E-1,3.980360329E-1,9.865307808E0
3.979333420E-1,1.634042710E-1,3.884592354E-1,9.827000618E0
3.999311550E-1,1.586158574E-1,3.405751884E-1,9.740809441E0
4.019289670E-1,1.394622475E-1,3.357867897E-1,9.635464668E0
4.039267800E-1,8.678980917E-2,3.118447661E-1,9.611522675E0
4.059245920E-1,1.011550203E-1,2.974795699E-1,9.558850288E0
4.079224050E-1,9.157821536E-2,3.309983909E-1,9.482235909E0
4.099202170E-1,6.763619930E-2,3.693056107E-1,9.348160744E0
4.119180300E-1,5.327098817E-2,3.645172119E-1,9.415198326E0
4.139158420E-1,9.636662155E-2,2.974795699E-1,9.549273491E0
4.159136550E-1,9.636662155E-2,3.118447661E-1,9.616311073E0
4.179114670E-1,1.203086376E-1,3.357867897E-1,9.563638687E0
4.199092800E-1,8.678980917E-2,3.118447661E-1,9.534908295E0
4.219070920E-1,8.200141042E-2,3.501519859E-1,9.539696693E0
4.239049050E-1,7.242459804E-2,3.501519859E-1,9.506177902E0
4.259027170E-1,5.805939063E-2,3.405751884E-1,9.506177902E0
4.279005300E-1,9.636662155E-2,4.171896577E-1,9.515754700E0
4.298983420E-1,8.678980917E-2,4.028244317E-1,9.376891136E0
4.318961550E-1,4.369417951E-2,3.453635871E-1,9.443928719E0
4.338939670E-1,2.932897024E-2,3.740940094E-1,9.515754700E0
4.358917800E-1,3.890577704E-2,4.890156984E-1,9.558850288E0
4.378895920E-1,9.636662155E-2,5.177460909E-1,9.668983459E0
4.398874050E-1,1.298854351E-1,4.794389009E-1,9.865307808E0
4.418852170E-1,1.346738487E-1,4.267664552E-1,9.970652580E0
4.438830300E-1,1.011550203E-1,4.124012291E-1,9.932345390E0
4.458808420E-1,8.678980917E-2,4.698620737E-1,9.678560257E0
4.478787070E-1,9.636662155E-2,4.171896577E-1,9.592369080E0
4.498766240E-1,1.107318252E-1,2.879027426E-1,9.759963036E0
4.518745920E-1,1.969230920E-1,3.693056107E-1,9.707290649E0
4.538725610E-1,2.448071241E-1,4.124012291E-1,9.668983459E0
4.558705300E-1,2.926911712E-1,3.453635871E-1,9.668983459E0
4.578684990E-1,2.735375464E-1,3.405751884E-1,9.578003883E0
4.598664670E-1,3.022679687E-1,3.645172119E-1,9.391256332E0
4.618644360E-1,3.309983909E-1,3.405751884E-1,9.309853554E0
4.638623010E-1,2.974795699E-1,3.022679687E-1,9.281123161E0
4.658601650E-1,2.543839216E-1,2.879027426E-1,9.266757965E0
4.678580300E-1,2.687491477E-1,2.256535143E-1,9.510966301E0
4.698558940E-1,2.448071241E-1,4.848258570E-2,1.011430550E1
4.718537590E-1,2.208651006E-1,-9.038111567E-2,1.055962658E1
4.738516240E-1,2.160767019E-1,-4.728548229E-2,1.020049667E1
4.758494880E-1,1.729810685E-1,-4.728548229E-2,9.937133789E0
4.778470920E-1,1.155202314E-1,2.932897024E-2,9.731232643E0
4.798445920E-1,8.200141042E-2,6.763619930E-2,9.683348656E0
4.818420920E-1,7.242459804E-2,1.059434265E-1,9.664195061E0
4.838395920E-1,7.721300423E-2,1.873462796E-1,9.467870712E0
4.858370920E-1,1.059434265E-1,2.208651006E-1,9.458293915E0
4.878345920E-1,1.394622475E-1,2.352303118E-1,9.582792282E0
4.898320920E-1,1.442506462E-1,2.112883031E-1,9.707290649E0
4.918295920E-1,1.107318252E-1,2.112883031E-1,9.798270226E0
4.938270920E-1,6.284779310E-2,2.687491477E-1,9.692925453E0
4.958245920E-1,7.242459804E-2,3.357867897E-1,9.736021042E0
4.978220920E-1,4.848258570E-2,3.453635871E-1,9.755174637E0
4.998195920E-1,3.890577704E-2,3.693056107E-1,9.783905029E0
5.018171440E-1,4.369417951E-2,4.219780564E-1,9.726444244E0
5.038147490E-1,5.985504249E-4,4.267664552E-1,9.692925453E0
5.058124050E-1,-1.855506375E-2,3.788824081E-1,9.721655846E0
5.078101130E-1,5.386953708E-3,3.357867897E-1,9.860519409E0
5.098078740E-1,1.496376097E-2,2.495955229E-1,9.961075783E0
5.118056860E-1,5.327098817E-2,3.405751884E-1,9.759963036E0
5.138035510E-1,6.763619930E-2,3.405751884E-1,9.630676270E0
5.158014670E-1,4.369417951E-2,3.262099922E-1,9.616311073E0
5.177993840E-1,2.932897024E-2,2.879027426E-1,9.702502251E0
5.197973010E-1,2.454056777E-2,2.783259451E-1,9.745597839E0
5.217952170E-1,1.975216344E-2,2.256535143E-1,9.707290649E0
5.237931340E-1,-1.855506375E-2,2.256535143E-1,9.750386238E0
5.257906860E-1,5.985504249E-4,2.735375464E-1,9.678560257E0
5.277882380E-1,1.496376097E-2,2.400187254E-1,9.649829865E0
5.297857900E-1,-2.334346622E-2,1.825578809E-1,9.692925453E0
5.317833420E-1,-7.122749835E-2,1.490390599E-1,9.625887871E0
5.337808940E-1,-4.249707982E-2,1.969230920E-1,9.707290649E0
5.357784460E-1,-2.813187055E-2,1.729810685E-1,9.635464668E0
5.377760510E-1,-4.249707982E-2,4.369417951E-2,9.659406662E0
5.397737070E-1,-6.643909961E-2,1.394622475E-1,9.534908295E0
5.417714150E-1,-1.376665942E-2,2.256535143E-1,9.443928719E0
5.437691760E-1,1.975216344E-2,1.777694821E-1,9.558850288E0
5.457669880E-1,-8.978256024E-3,8.678980917E-2,9.520543098E0
5.477648010E-1,2.932897024E-2,-5.686229095E-2,9.740809441E0
5.497626130E-1,1.975216344E-2,-2.334346622E-2,9.855731010E0
5.517604260E-1,4.369417951E-2,1.538274586E-1,9.592369080E0
5.537582380E-1,7.721300423E-2,1.538274586E-1,9.458293915E0
5.557560510E-1,1.011550203E-1,1.107318252E-1,9.601945877E0
5.577538630E-1,2.112883031E-1,1.107318252E-1,9.774328232E0
5.597516760E-1,2.400187254E-1,1.873462796E-1,9.649829865E0
5.617494880E-1,2.591723204E-1,1.346738487E-1,9.520543098E0
5.637473010E-1,2.591723204E-1,1.203086376E-1,9.506177902E0
5.657451130E-1,2.160767019E-1,1.442506462E-1,9.487024307E0
5.677427690E-1,2.352303118E-1,9.636662155E-2,9.487024307E0
5.697404260E-1,2.591723204E-1,-4.189853091E-3,9.587580681E0
5.717380820E-1,2.304419130E-1,-5.686229095E-2,9.831789017E0
5.737357380E-1,2.639607489E-1,6.284779310E-2,9.683348656E0
5.757333940E-1,2.831143439E-1,1.634042710E-1,9.515754700E0
5.777310510E-1,2.591723204E-1,6.763619930E-2,9.654618263E0
5.797287070E-1,2.591723204E-1,5.805939063E-2,9.961075783E0
5.817263630E-1,2.112883031E-1,1.203086376E-1,9.889249802E0
5.837240190E-1,1.777694821E-1,1.969230920E-1,9.601945877E0
5.857216760E-1,1.298854351E-1,1.394622475E-1,9.654618263E0
5.877193320E-1,1.250970364E-1,2.208651006E-1,9.850942612E0
5.897169880E-1,1.059434265E-1,2.735375464E-1,9.941922188E0
5.917146960E-1,1.298854351E-1,3.932476342E-1,9.625887871E0
5.937124570E-1,8.200141042E-2,3.980360329E-1,9.635464668E0
5.957102690E-1,3.890577704E-2,3.645172119E-1,9.774328232E0
5.977081340E-1,5.805939063E-2,3.884592354E-1,9.913191795E0
5.997060510E-1,9.157821536E-2,4.124012291E-1,9.850942612E0
6.017040190E-1,2.454056777E-2,3.166331649E-1,9.841365814E0
6.037020400E-1,-2.813187055E-2,3.262099922E-1,9.745597839E0
6.057000610E-1,-3.292027488E-2,3.645172119E-1,9.678560257E0
6.076980820E-1,-4.728548229E-2,3.070563674E-1,9.783905029E0
6.096961030E-1,-2.813187055E-2,2.879027426E-1,9.870096207E0
6.116939670E-1,-4.249707982E-2,2.735375464E-1,9.822212219E0
6.136918320E-1,-3.292027488E-2,3.214215636E-1,9.994594574E0
6.156896960E-1,-3.292027488E-2,4.267664552E-1,9.817423820E0
6.176875610E-1,-3.770867735E-2,3.884592354E-1,9.788693428E0
6.196852170E-1,-1.376665942E-2,3.022679687E-1,1.002811337E1
6.216828740E-1,5.985504249E-4,3.549404144E-1,9.941922188E0
6.236804780E-1,3.411737457E-2,3.836708367E-1,9.783905029E0
6.256780820E-1,1.975216344E-2,4.219780564E-1,9.616311073E0
6.276756860E-1,2.932897024E-2,3.740940094E-1,9.726444244E0
6.296732900E-1,5.327098817E-2,3.932476342E-1,9.712079048E0
6.316708940E-1,8.678980917E-2,3.597288132E-1,9.769539833E0
6.336684990E-1,1.298854351E-1,3.932476342E-1,9.817423820E0
6.356661030E-1,8.678980917E-2,3.405751884E-1,9.807847023E0
6.376637070E-1,1.011550203E-1,3.597288132E-1,9.764751434E0
6.396613110E-1,1.586158574E-1,3.357867897E-1,9.774328232E0
6.416589150E-1,1.681926697E-1,3.262099922E-1,9.870096207E0
6.436565190E-1,1.394622475E-1,3.166331649E-1,9.726444244E0
6.456541240E-1,9.636662155E-2,2.304419130E-1,9.803058624E0
6.476517280E-1,8.200141042E-2,3.453635871E-1,9.745597839E0
6.496493320E-1,4.848258570E-2,3.309983909E-1,9.721655846E0
6.516469360E-1,1.011550203E-1,3.357867897E-1,9.659406662E0
6.536445400E-1,3.411737457E-2,2.974795699E-1,9.731232643E0
6.556421440E-1,4.848258570E-2,4.554968774E-1,9.534908295E0
6.576397490E-1,3.890577704E-2,3.980360329E-1,9.688137054E0
6.596373530E-1,3.890577704E-2,2.783259451E-1,9.841365814E0
6.616349570E-1,1.496376097E-2,3.309983909E-1,9.731232643E0
6.636325610E-1,2.454056777E-2,3.884592354E-1,9.630676270E0
6.656301650E-1,4.848258570E-2,3.597288132E-1,9.640253067E0
6.676278210E-1,4.369417951E-2,3.262099922E-1,9.702502251E0
6.696255300E-1,5.386953708E-3,2.974795699E-1,9.707290649E0
6.716232900E-1,5.386953708E-3,2.639607489E-1,9.731232643E0
6.736211030E-1,-2.813187055E-2,2.879027426E-1,9.582792282E0
6.756189150E-1,-2.813187055E-2,3.214215636E-1,9.348160744E0
6.776167280E-1,-5.686229095E-2,2.112883031E-1,9.558850288E0
6.796145400E-1,-8.978256024E-3,1.490390599E-1,9.740809441E0
6.816123530E-1,1.017535757E-2,1.059434265E-1,9.807847023E0
6.836101650E-1,3.411737457E-2,1.586158574E-1,9.721655846E0
6.856079780E-1,6.763619930E-2,1.873462796E-1,9.640253067E0
6.876057900E-1,8.200141042E-2,7.721300423E-2,9.841365814E0
6.896036030E-1,8.200141042E-2,1.059434265E-1,9.783905029E0
6.916014150E-1,3.890577704E-2,5.386953708E-3,9.649829865E0
6.935991760E-1,2.454056777E-2,-1.191115379E-1,9.573215485E0
6.955969360E-1,-2.334346622E-2,-1.957259923E-1,9.645041466E0
6.975945920E-1,2.932897024E-2,-3.010708690E-1,9.913191795E0
6.995920920E-1,3.411737457E-2,-1.861491799E-1,9.649829865E0
7.015895920E-1,-7.601590455E-2,-1.238999367E-1,9.314641953E0
7.035870920E-1,-1.095347255E-1,-2.053027898E-1,9.405621529E0
7.055845920E-1,-1.286883354E-1,-1.957259923E-1,9.611522675E0
7.075820920E-1,-1.478419602E-1,-1.238999367E-1,9.530119896E0
7.095795920E-1,-9.995792061E-2,-2.579752207E-1,9.659406662E0
7.115770920E-1,-1.334767491E-1,-2.723404467E-1,9.587580681E0
7.135745920E-1,-2.005143911E-1,-2.819172442E-1,9.664195061E0
7.155720920E-1,-3.202244639E-1,-2.675520480E-1,9.750386238E0
7.175695920E-1,-3.202244639E-1,-1.717839688E-1,9.716867447E0
7.195671440E-1,-3.681085110E-1,-6.643909961E-2,9.745597839E0
7.215647490E-1,-4.207809567E-1,-7.122749835E-2,9.645041466E0
7.235624050E-1,-4.255693555E-1,-4.728548229E-2,9.702502251E0
7.255601130E-1,-3.872621357E-1,1.017535757E-2,9.803058624E0
7.275578740E-1,-4.207809567E-1,5.327098817E-2,9.855731010E0
7.295556860E-1,-4.399345517E-1,4.848258570E-2,9.903614998E0
7.315535510E-1,-4.878185987E-1,1.777694821E-1,9.898826599E0
7.335514670E-1,-4.399345517E-1,1.969230920E-1,9.779116631E0
7.355494360E-1,-3.968389332E-1,1.346738487E-1,9.846154213E0
7.375474050E-1,-3.968389332E-1,1.825578809E-1,9.774328232E0
7.395453740E-1,-3.345896900E-1,9.636662155E-2,9.913191795E0
7.415433420E-1,-1.622071713E-1,3.411737457E-2,1.010472870E1
7.435413110E-1,-1.669955701E-1,7.242459804E-2,9.822212219E0
7.455391760E-1,-1.717839688E-1,4.369417951E-2,9.812635422E0
7.475367800E-1,-1.238999367E-1,-2.334346622E-2,9.788693428E0
7.495343840E-1,-1.574187577E-1,2.932897024E-2,9.798270226E0
7.515319880E-1,-9.038111567E-2,3.890577704E-2,9.779116631E0
7.535295920E-1,-1.526303589E-1,7.242459804E-2,9.908403397E0
7.555271960E-1,-1.574187577E-1,1.538274586E-1,9.894038200E0
7.575248010E-1,-8.080431074E-2,2.017114908E-1,9.860519409E0
7.595224050E-1,-9.038111567E-2,2.543839216E-1,9.793481827E0
7.615200090E-1,-9.516951442E-2,2.495955229E-1,9.884461403E0
7.635176130E-1,-6.643909961E-2,2.495955229E-1,9.922768593E0
7.655152170E-1,-4.728548229E-2,3.022679687E-1,9.865307808E0
7.675128210E-1,-7.122749835E-2,4.267664552E-1,9.831789017E0
7.695104780E-1,-4.728548229E-2,5.081692934E-1,9.961075783E0
7.715081860E-1,-3.292027488E-2,4.890156984E-1,9.999382973E0
7.735059460E-1,-6.165069342E-2,4.794389009E-1,1.001374817E1
7.755037590E-1,-7.601590455E-2,5.704185367E-1,9.946710587E0
7.775015710E-1,-6.643909961E-2,6.422445774E-1,9.922768593E0
7.794993840E-1,-5.207388848E-2,6.230909824E-1,9.879673004E0
7.814971960E-1,-4.728548229E-2,6.278793812E-1,9.874884605E0
7.834950090E-1,-9.038111567E-2,6.518214345E-1,9.817423820E0
7.854928210E-1,-8.559270948E-2,5.752069354E-1,1.006163311E1
7.874906340E-1,-1.286883354E-1,6.997054219E-1,9.841365814E0
7.894884460E-1,-1.430535465E-1,6.853402257E-1,9.506177902E0
7.914862590E-1,-1.909375787E-1,5.752069354E-1,9.424775124E0
7.934840710E-1,-1.669955701E-1,5.847837925E-1,9.544485092E0
7.954818840E-1,-1.622071713E-1,6.374561787E-1,9.439140320E0
7.974796440E-1,-4.249707982E-2,4.985924959E-1,9.673771858E0
7.994774050E-1,-1.376665942E-2,3.453635871E-1,1.013345909E1
8.014751650E-1,2.932897024E-2,2.352303118E-1,1.034893703E1
8.034729260E-1,-8.978256024E-3,1.011550203E-1,1.008557510E1
8.054706860E-1,-1.376665942E-2,1.017535757E-2,9.898826599E0
8.074684460E-1,-5.207388848E-2,-6.643909961E-2,9.697713852E0
8.094662070E-1,1.017535757E-2,-1.478419602E-1,9.779116631E0
8.114639150E-1,1.059434265E-1,-1.478419602E-1,9.707290649E0
8.134615190E-1,1.394622475E-1,-1.909375787E-1,9.702502251E0
8.154590710E-1,1.777694821E-1,-2.771288455E-1,9.616311073E0
8.174565190E-1,2.591723204E-1,-2.914940715E-1,9.640253067E0
8.194539670E-1,3.214215636E-1,-3.154360652E-1,9.558850288E0
8.214514150E-1,4.171896577E-1,-2.483984232E-1,9.501389503E0
8.234488630E-1,4.746504724E-1,-3.058592677E-1,9.582792282E0
8.254463110E-1,4.938040972E-1,-2.771288455E-1,9.482235909E0
8.274438110E-1,4.842272997E-1,-2.867056429E-1,9.510966301E0
8.294413630E-1,5.608417392E-1,-2.148796022E-1,9.611522675E0
8.314389670E-1,5.033808947E-1,-1.430535465E-1,9.568427086E0
8.334366240E-1,4.507084787E-1,-4.249707982E-2,9.554061890E0
8.354343320E-1,3.597288132E-1,-7.122749835E-2,9.496601105E0
8.374320920E-1,2.879027426E-1,2.932897024E-2,9.510966301E0
8.394299050E-1,2.543839216E-1,5.386953708E-3,9.515754700E0
8.414277690E-1,1.777694821E-1,-1.855506375E-2,9.668983459E0
8.434256860E-1,1.969230920E-1,1.250970364E-1,9.798270226E0
8.454236550E-1,1.442506462E-1,2.400187254E-1,9.688137054E0
8.474216760E-1,1.681926697E-1,2.160767019E-1,9.506177902E0
8.494196960E-1,1.394622475E-1,2.591723204E-1,9.630676270E0
8.514177170E-1,1.873462796E-1,3.118447661E-1,9.678560257E0
8.534157380E-1,1.634042710E-1,3.740940094E-1,9.702502251E0
8.554137590E-1,1.681926697E-1,3.022679687E-1,9.587580681E0
8.574117800E-1,1.825578809E-1,3.645172119E-1,9.635464668E0
8.594094880E-1,2.495955229E-1,3.693056107E-1,9.563638687E0
8.614070400E-1,1.921346933E-1,3.262099922E-1,9.549273491E0
8.634045920E-1,2.208651006E-1,3.070563674E-1,9.563638687E0
8.654021440E-1,2.591723204E-1,2.256535143E-1,9.606734276E0
8.673996960E-1,2.974795699E-1,1.873462796E-1,9.769539833E0
8.693972490E-1,3.022679687E-1,5.327098817E-2,9.745597839E0
8.713948010E-1,3.645172119E-1,1.298854351E-1,9.913191795E0
8.733923530E-1,3.597288132E-1,4.746504724E-1,9.678560257E0
8.753899050E-1,3.166331649E-1,3.262099922E-1,9.261969566E0
8.773874570E-1,2.543839216E-1,1.496376097E-2,9.530119896E0
8.793850610E-1,2.400187254E-1,1.681926697E-1,9.999382973E0
8.813827170E-1,3.022679687E-1,2.879027426E-1,9.985017776E0
8.833804260E-1,2.448071241E-1,3.405751884E-1,9.755174637E0
8.853781860E-1,1.969230920E-1,3.884592354E-1,9.611522675E0
8.873759990E-1,1.681926697E-1,4.602852762E-1,9.587580681E0
8.893738110E-1,1.250970364E-1,4.698620737E-1,9.740809441E0
8.913716760E-1,9.636662155E-2,5.416881442E-1,9.487024307E0
8.933695400E-1,5.327098817E-2,5.225345492E-1,9.515754700E0
8.953674050E-1,5.985504249E-4,4.794389009E-1,9.736021042E0
8.973652690E-1,4.848258570E-2,4.554968774E-1,9.836577415E0
8.993631340E-1,-8.978256024E-3,3.549404144E-1,9.755174637E0
9.013609990E-1,5.386953708E-3,3.309983909E-1,9.841365814E0
9.033588110E-1,5.985504249E-4,4.124012291E-1,9.884461403E0
9.053565190E-1,4.848258570E-2,4.842272997E-1,9.702502251E0
9.073540190E-1,1.975216344E-2,4.124012291E-1,9.606734276E0
9.093514670E-1,5.327098817E-2,4.171896577E-1,9.716867447E0
9.113489150E-1,7.721300423E-2,4.219780564E-1,9.683348656E0
9.133463630E-1,4.369417951E-2,4.650736749E-1,9.635464668E0
9.153438110E-1,3.890577704E-2,3.645172119E-1,9.645041466E0
9.173412590E-1,6.284779310E-2,2.112883031E-1,9.759963036E0
9.193387070E-1,1.298854351E-1,2.639607489E-1,1.021486187E1
9.213362070E-1,1.155202314E-1,4.315548539E-1,9.515754700E0
9.233337590E-1,1.586158574E-1,3.118447661E-1,9.376891136E0
9.253313630E-1,1.011550203E-1,2.448071241E-1,9.568427086E0
9.273289670E-1,1.825578809E-1,2.495955229E-1,9.740809441E0
9.293265710E-1,2.352303118E-1,2.831143439E-1,9.764751434E0
9.313241760E-1,2.974795699E-1,1.729810685E-1,9.941922188E0
9.333217800E-1,2.831143439E-1,2.017114908E-1,9.941922188E0
9.353193840E-1,2.639607489E-1,2.448071241E-1,9.817423820E0
9.373169880E-1,2.926911712E-1,3.022679687E-1,9.712079048E0
9.393145920E-1,2.783259451E-1,3.693056107E-1,9.764751434E0
9.413121960E-1,2.543839216E-1,3.788824081E-1,9.731232643E0
9.433098010E-1,2.400187254E-1,3.693056107E-1,9.846154213E0
9.453074050E-1,2.160767019E-1,3.836708367E-1,9.884461403E0
9.473050090E-1,2.400187254E-1,4.602852762E-1,9.908403397E0
9.493026130E-1,2.017114908E-1,5.225345492E-1,9.812635422E0
9.513002690E-1,1.969230920E-1,4.794389009E-1,9.645041466E0
9.532979780E-1,1.538274586E-1,3.836708367E-1,9.850942612E0
9.552957380E-1,1.155202314E-1,4.267664552E-1,9.946710587E0
9.572935510E-1,1.203086376E-1,5.225345492E-1,9.731232643E0
9.592914150E-1,1.107318252E-1,5.225345492E-1,9.645041466E0
9.612893320E-1,9.157821536E-2,4.554968774E-1,9.764751434E0
9.632873010E-1,8.200141042E-2,4.171896577E-1,9.874884605E0
9.652853210E-1,1.011550203E-1,3.214215636E-1,9.980229378E0
9.672833420E-1,1.011550203E-1,3.645172119E-1,9.726444244E0
9.692813630E-1,6.284779310E-2,4.219780564E-1,9.645041466E0
9.712793840E-1,7.242459804E-2,4.028244317E-1,9.506177902E0
9.732772490E-1,9.157821536E-2,3.070563674E-1,9.611522675E0
9.752747490E-1,7.242459804E-2,1.921346933E-1,9.941922188E0
9.772721960E-1,1.059434265E-1,2.735375464E-1,9.922768593E0
9.792696440E-1,1.203086376E-1,3.357867897E-1,9.520543098E0
9.812670920E-1,6.763619930E-2,3.166331649E-1,9.396044731E0
9.832645400E-1,8.200141042E-2,3.166331649E-1,9.616311073E0
9.852619880E-1,4.848258570E-2,2.400187254E-1,9.731232643E0
9.872594360E-1,4.848258570E-2,1.634042710E-1,9.889249802E0
9.892568840E-1,2.454056777E-2,1.969230920E-1,9.822212219E0
9.912543840E-1,-5.686229095E-2,2.352303118E-1,9.692925453E0
9.932519360E-1,-7.601590455E-2,3.501519859E-1,9.467870712E0
9.952495400E-1,-9.995792061E-2,3.645172119E-1,9.214085579E0
9.972471960E-1,-1.047463268E-1,4.219780564E-1,9.439140320E0
9.992449050E-1,-9.516951442E-2,3.932476342E-1,9.563638687E0
1.001242665E0,-9.516951442E-2,2.687491477E-1,9.625887871E0
1.003240478E0,-1.334767491E-1,2.591723204E-1,9.721655846E0
1.005238342E0,-9.038111567E-2,2.017114908E-1,9.798270226E0
1.007236259E0,-5.686229095E-2,2.112883031E-1,9.740809441E0
1.009234176E0,-3.770867735E-2,2.879027426E-1,9.549273491E0
1.011232092E0,2.454056777E-2,2.495955229E-1,9.702502251E0
1.013230009E0,-1.376665942E-2,2.783259451E-1,9.726444244E0
1.015227926E0,5.985504249E-4,3.118447661E-1,9.659406662E0
1.017225842E0,2.454056777E-2,3.645172119E-1,9.635464668E0
1.019223759E0,-2.334346622E-2,3.693056107E-1,9.515754700E0
1.021221676E0,-3.770867735E-2,3.022679687E-1,9.558850288E0
1.023219592E0,1.017535757E-2,3.166331649E-1,9.803058624E0
1.025217405E0,4.369417951E-2,3.453635871E-1,9.640253067E0
1.027215061E0,5.327098817E-2,2.591723204E-1,9.645041466E0
1.029212717E0,1.203086376E-1,2.495955229E-1,9.831789017E0
1.031210374E0,1.346738487E-1,3.262099922E-1,9.956287384E0
1.033208030E0,1.203086376E-1,2.926911712E-1,9.946710587E0
1.035205686E0,6.763619930E-2,3.166331649E-1,9.898826599E0
1.037203342E0,5.805939063E-2,3.740940094E-1,9.812635422E0
1.039200999E0,7.721300423E-2,3.309983909E-1,9.793481827E0
1.041198655E0,4.369417951E-2,2.256535143E-1,9.889249802E0
1.043196311E0,5.805939063E-2,8.200141042E-2,9.750386238E0
1.045193967E0,2.064998895E-1,7.906851172E-1,9.759963036E0
1.047191624E0,1.634042710E-1,9.151836038E-1,9.482235909E0
1.049189280E0,5.327098817E-2,2.783259451E-1,9.185355186E0
1.051186936E0,7.242459804E-2,2.017114908E-1,9.889249802E0
1.053184592E0,7.721300423E-2,3.309983909E-1,1.033936024E1
1.055182249E0,1.442506462E-1,9.636662155E-2,1.018134308E1
1.057179905E0,2.208651006E-1,1.975216344E-2,1.022443867E1
1.059177561E0,1.634042710E-1,3.357867897E-1,9.917980194E0
1.061175113E0,9.636662155E-2,4.985924959E-1,9.367314339E0
1.063172665E0,1.011550203E-1,3.980360329E-1,9.190143585E0
1.065170217E0,5.805939063E-2,3.501519859E-1,9.381679535E0
1.067167613E0,5.805939063E-2,3.357867897E-1,9.774328232E0
1.069165009E0,3.890577704E-2,2.064998895E-1,9.937133789E0
1.071162405E0,7.242459804E-2,1.203086376E-1,1.001374817E1
1.073159801E0,1.203086376E-1,2.400187254E-1,9.937133789E0
1.075157196E0,8.200141042E-2,1.059434265E-1,9.841365814E0
1.077154592E0,8.200141042E-2,2.687491477E-1,9.692925453E0
1.079151988E0,4.369417951E-2,5.656301379E-1,9.338583946E0
1.081149384E0,2.932897024E-2,5.081692934E-1,9.099164009E0
1.083146832E0,1.017535757E-2,3.597288132E-1,9.204508781E0
1.085144332E0,-4.189853091E-3,2.639607489E-1,9.544485092E0
1.087141884E0,1.017535757E-2,1.538274586E-1,1.004726696E1
1.089139488E0,5.327098817E-2,1.442506462E-1,1.009036350E1
1.091137144E0,5.386953708E-3,5.985504249E-4,1.030105305E1
1.093134853E0,8.200141042E-2,1.586158574E-1,1.025316906E1
1.095132613E0,6.763619930E-2,4.698620737E-1,9.515754700E0
1.097130426E0,2.932897024E-2,5.608417392E-1,8.989029884E0
1.099128290E0,-3.770867735E-2,4.459200799E-1,9.338583946E0
1.101126155E0,-4.728548229E-2,5.608417392E-1,9.654618263E0
1.103124019E0,-5.207388848E-2,4.842272997E-1,9.601945877E0
1.105121884E0,-2.334346622E-2,3.166331649E-1,9.841365814E0
1.107119749E0,3.890577704E-2,3.357867897E-1,9.937133789E0
1.109117613E0,5.386953708E-3,3.980360329E-1,9.769539833E0
1.111115478E0,2.454056777E-2,2.831143439E-1,9.597157478E0
1.113113082E0,-4.189853091E-3,2.064998895E-1,9.822212219E0
1.115110686E0,3.890577704E-2,3.405751884E-1,9.850942612E0
1.117108290E0,8.200141042E-2,4.171896577E-1,9.443928719E0
1.119105894E0,7.721300423E-2,2.304419130E-1,9.510966301E0
1.121103499E0,4.848258570E-2,1.011550203E-1,9.774328232E0
1.123100894E0,5.327098817E-2,1.825578809E-1,1.011909389E1
1.125098290E0,-4.189853091E-3,1.969230920E-1,1.004247856E1
1.127095686E0,5.386953708E-3,3.214215636E-1,9.582792282E0
1.129093082E0,-4.249707982E-2,3.788824081E-1,9.554061890E0
1.131090478E0,5.985504249E-4,4.363432527E-1,9.405621529E0
1.133087874E0,-1.286883354E-1,4.076128304E-1,9.396044731E0
1.135085269E0,5.805939063E-2,2.208651006E-1,9.463082314E0
1.137082665E0,-1.855506375E-2,1.155202314E-1,9.831789017E0
1.139080061E0,1.975216344E-2,1.969230920E-1,1.008557510E1
1.141077457E0,1.538274586E-1,2.208651006E-1,9.549273491E0
1.143074853E0,9.157821536E-2,2.687491477E-1,9.463082314E0
1.145072249E0,1.298854351E-1,1.538274586E-1,9.621099472E0
1.147069644E0,2.017114908E-1,-4.728548229E-2,1.010951710E1
1.149067040E0,2.495955229E-1,1.155202314E-1,1.020049667E1
1.151064436E0,2.831143439E-1,1.969230920E-1,9.831789017E0
1.153061832E0,3.070563674E-1,1.250970364E-1,9.453505516E0
1.155059280E0,2.735375464E-1,7.721300423E-2,9.750386238E0
1.157056780E0,2.543839216E-1,1.681926697E-1,1.022922707E1
1.159054332E0,2.831143439E-1,2.256535143E-1,1.000417137E1
1.161051936E0,2.064998895E-1,1.921346933E-1,9.769539833E0
1.163049592E0,2.112883031E-1,2.064998895E-1,9.793481827E0
1.165047301E0,2.112883031E-1,2.591723204E-1,1.025795746E1
1.167045009E0,1.681926697E-1,4.698620737E-1,9.999382973E0
1.169042717E0,8.678980917E-2,4.554968774E-1,9.381679535E0
1.171040426E0,1.011550203E-1,3.836708367E-1,9.563638687E0
1.173038134E0,1.250970364E-1,3.501519859E-1,1.010951710E1
1.175035842E0,1.011550203E-1,5.416881442E-1,9.836577415E0
1.177033342E0,1.825578809E-1,5.273229480E-1,9.439140320E0
1.179030842E0,2.064998895E-1,6.039373875E-1,9.716867447E0
1.181028342E0,1.969230920E-1,6.422445774E-1,9.678560257E0
1.183025842E0,1.729810685E-1,5.991489887E-1,9.439140320E0
1.185023342E0,1.059434265E-1,5.177460909E-1,9.836577415E0
1.187020842E0,4.369417951E-2,5.512649417E-1,1.001853657E1
1.189018342E0,1.155202314E-1,4.746504724E-1,9.855731010E0
1.191015842E0,5.985504249E-4,3.740940094E-1,9.582792282E0
1.193013342E0,-4.249707982E-2,4.028244317E-1,9.850942612E0
1.195010842E0,-8.978256024E-3,6.278793812E-1,9.525331497E0
1.197008342E0,-3.292027488E-2,4.459200799E-1,9.266757965E0
1.199005842E0,-1.376665942E-2,2.495955229E-1,9.999382973E0
1.201003342E0,3.411737457E-2,3.645172119E-1,1.011909389E1
1.203000842E0,4.848258570E-2,3.740940094E-1,9.635464668E0
1.204998342E0,8.200141042E-2,8.433575630E-1,9.314641953E0
1.206995842E0,1.017535757E-2,1.063624144E0,7.988254070E0
1.208993342E0,-3.292027488E-2,-1.220444322E0,1.025316906E1
1.210990842E0,1.017535757E-2,-9.475052953E-1,1.366251183E1
1.212988342E0,5.805939063E-2,4.985924959E-1,1.083735371E1
1.214985842E0,-8.978256024E-3,1.178545833E0,7.202955723E0
1.216983342E0,1.496376097E-2,9.343371987E-1,7.763198853E0
1.218980842E0,-9.516951442E-2,3.597288132E-1,9.817423820E0
1.220978342E0,-5.207388848E-2,1.975216344E-2,1.056920338E1
1.222975842E0,5.327098817E-2,1.017535757E-2,1.059793377E1
1.224973342E0,1.634042710E-1,3.549404144E-1,1.018613148E1
1.226970842E0,1.394622475E-1,6.757634282E-1,8.931569099E0
1.228968342E0,9.157821536E-2,4.363432527E-1,9.123106003E0
1.230965842E0,1.394622475E-1,1.681926697E-1,1.041118622E1
1.232963342E0,1.729810685E-1,3.549404144E-1,9.419986725E0
1.234960842E0,8.678980917E-2,2.879027426E-1,9.127894402E0
1.236958238E0,1.059434265E-1,-1.855506375E-2,1.015261269E1
1.238955634E0,1.203086376E-1,-6.165069342E-2,1.034893703E1
1.240953030E0,1.969230920E-1,2.400187254E-1,9.894038200E0
1.242950374E0,2.256535143E-1,5.895721912E-1,8.543708801E0
1.244947613E0,1.203086376E-1,2.256535143E-1,9.032125473E0
1.246944853E0,1.346738487E-1,-1.861491799E-1,1.087087250E1
1.248942092E0,8.200141042E-2,-2.148796022E-1,1.058835697E1
1.250939332E0,1.107318252E-1,1.250970364E-1,9.357737541E0
1.252936467E0,1.634042710E-1,2.926911712E-1,9.247604370E0
1.254933603E0,9.157821536E-2,4.746504724E-1,9.084798813E0
1.256930738E0,5.805939063E-2,3.597288132E-1,8.893261909E0
1.258927874E0,7.242459804E-2,-1.478419602E-1,1.043033981E1
1.260925009E0,1.490390599E-1,-1.526303589E-1,1.122521496E1
1.262922144E0,1.107318252E-1,2.160767019E-1,9.568427086E0
1.264919332E0,1.634042710E-1,5.847837925E-1,8.936357498E0
1.266916571E0,1.250970364E-1,5.608417392E-1,9.314641953E0
1.268913863E0,1.203086376E-1,2.831143439E-1,9.894038200E0
1.270911207E0,1.298854351E-1,1.442506462E-1,1.014782429E1
1.272908603E0,4.369417951E-2,2.639607489E-1,1.016218948E1
1.274906051E0,1.011550203E-1,5.081692934E-1,9.621099472E0
1.276903551E0,1.490390599E-1,8.002619147E-1,8.998606682E0
1.278901103E0,1.538274586E-1,5.512649417E-1,9.563638687E0
1.280898707E0,1.346738487E-1,4.848258570E-2,1.042076302E1
1.282896363E0,1.969230920E-1,1.298854351E-1,1.039203262E1
1.284894071E0,2.974795699E-1,5.129576921E-1,9.692925453E0
1.286891780E0,2.160767019E-1,7.428010702E-1,9.022548676E0
1.288889488E0,2.639607489E-1,4.028244317E-1,9.755174637E0
1.290887196E0,2.256535143E-1,2.352303118E-1,1.040639782E1
1.292884905E0,2.400187254E-1,6.183025837E-1,9.539696693E0
1.294882613E0,1.777694821E-1,7.619546652E-1,9.108740807E0
1.296880009E0,4.369417951E-2,5.512649417E-1,9.419986725E0
1.298877353E0,1.496376097E-2,5.177460909E-1,9.558850288E0
1.300874696E0,9.157821536E-2,4.219780564E-1,9.702502251E0
1.302872040E0,1.346738487E-1,2.160767019E-1,1.022922707E1
1.304869384E0,1.250970364E-1,3.022679687E-1,1.002811337E1
1.306866728E0,1.394622475E-1,3.214215636E-1,9.745597839E0
1.308864071E0,1.203086376E-1,3.884592354E-1,9.736021042E0
1.310861415E0,1.873462796E-1,3.693056107E-1,9.491812706E0
1.312858759E0,1.203086376E-1,9.636662155E-2,1.001853657E1
1.314856155E0,1.346738487E-1,2.352303118E-1,9.645041466E0
1.316853603E0,9.157821536E-2,3.214215636E-1,9.597157478E0
1.318851103E0,3.890577704E-2,1.442506462E-1,9.865307808E0
1.320848655E0,6.284779310E-2,-2.813187055E-2,9.716867447E0
1.322846259E0,9.157821536E-2,2.017114908E-1,9.702502251E0
1.324843915E0,9.157821536E-2,4.171896577E-1,9.539696693E0
1.326841624E0,1.059434265E-1,4.267664552E-1,9.261969566E0
1.328839332E0,1.975216344E-2,3.214215636E-1,9.716867447E0
1.330837040E0,5.985504249E-4,2.687491477E-1,1.005205631E1
1.332834749E0,6.284779310E-2,3.501519859E-1,9.769539833E0
1.334832457E0,3.890577704E-2,2.926911712E-1,9.506177902E0
1.336830165E0,1.011550203E-1,2.639607489E-1,1.023880386E1
1.338827874E0,1.011550203E-1,5.225345492E-1,9.999382973E0
1.340825582E0,3.890577704E-2,6.230909824E-1,9.381679535E0
1.342823134E0,3.411737457E-2,5.656301379E-1,9.410409927E0
1.344820530E0,1.155202314E-1,5.273229480E-1,9.788693428E0
1.346817926E0,1.442506462E-1,6.470330358E-1,9.668983459E0
1.348815321E0,9.636662155E-2,6.518214345E-1,9.510966301E0
1.350812717E0,-8.978256024E-3,4.076128304E-1,9.831789017E0
1.352810113E0,-4.249707982E-2,4.650736749E-1,1.013345909E1
1.354807509E0,-3.770867735E-2,7.188590765E-1,9.712079048E0
1.356804905E0,-3.770867735E-2,6.135141850E-1,9.386467934E0
1.358802301E0,-9.038111567E-2,3.980360329E-1,1.020528507E1
1.360799696E0,-6.643909961E-2,4.411316514E-1,1.006642151E1
1.362797092E0,-8.080431074E-2,5.560533404E-1,9.534908295E0
1.364794488E0,-5.207388848E-2,6.422445774E-1,9.333795547E0
1.366791832E0,-1.143231317E-1,5.560533404E-1,9.453505516E0
1.368789124E0,-3.292027488E-2,5.033808947E-1,1.026753426E1
1.370786415E0,-1.855506375E-2,4.602852762E-1,9.822212219E0
1.372783707E0,-5.686229095E-2,5.656301379E-1,9.448717117E0
1.374780999E0,2.454056777E-2,4.650736749E-1,9.870096207E0
1.376778290E0,5.327098817E-2,2.639607489E-1,9.764751434E0
1.378775582E0,4.369417951E-2,2.926911712E-1,1.006642151E1
1.380772874E0,2.932897024E-2,5.752069354E-1,9.587580681E0
1.382770165E0,1.017535757E-2,4.315548539E-1,9.247604370E0
1.384767457E0,-2.334346622E-2,2.352303118E-1,1.000417137E1
1.386764749E0,-1.376665942E-2,3.645172119E-1,9.372102737E0
1.388762040E0,-3.770867735E-2,1.155202314E-1,9.597157478E0
1.390759384E0,-2.334346622E-2,-5.207388848E-2,1.066018295E1
1.392756780E0,2.454056777E-2,1.921346933E-1,9.539696693E0
1.394754228E0,4.848258570E-2,4.602852762E-1,8.816647530E0
1.396751728E0,1.394622475E-1,2.735375464E-1,9.056067467E0
1.398749280E0,2.208651006E-1,-5.686229095E-2,9.793481827E0
1.400746884E0,1.921346933E-1,-2.771288455E-1,1.045428181E1
1.402744540E0,2.017114908E-1,-1.622071713E-1,9.822212219E0
1.404742249E0,2.352303118E-1,2.974795699E-1,9.601945877E0
1.406740009E0,2.495955229E-1,8.678980917E-2,9.783905029E0
1.408737821E0,1.059434265E-1,1.777694821E-1,9.597157478E0
1.410735686E0,5.386953708E-3,1.729810685E-1,9.606734276E0
1.412733603E0,5.985504249E-4,5.805939063E-2,1.002811337E1
1.414731571E0,-1.855506375E-2,1.250970364E-1,9.922768593E0
1.416729540E0,-7.122749835E-2,2.256535143E-1,9.803058624E0
1.418727509E0,-4.249707982E-2,3.549404144E-1,9.673771858E0
1.420725478E0,-1.095347255E-1,4.938040972E-1,9.515754700E0
1.422723446E0,-6.165069342E-2,5.081692934E-1,9.491812706E0
1.424721155E0,-1.191115379E-1,3.836708367E-1,1.007599831E1
1.426718655E0,-1.909375787E-1,4.124012291E-1,9.807847023E0
1.428716155E0,-2.005143911E-1,4.842272997E-1,9.759963036E0
1.430713655E0,-1.095347255E-1,5.225345492E-1,9.769539833E0
1.432711155E0,-4.249707982E-2,5.368997455E-1,9.668983459E0
1.434708655E0,-3.292027488E-2,3.740940094E-1,9.726444244E0
1.436706155E0,-7.601590455E-2,2.495955229E-1,1.050695419E1
1.438703655E0,1.496376097E-2,5.081692934E-1,9.697713852E0
1.440701155E0,1.496376097E-2,7.475894690E-1,9.156624794E0
1.442698655E0,2.932897024E-2,7.332242727E-1,9.348160744E0
1.444696207E0,-6.643909961E-2,5.129576921E-1,9.467870712E0
1.446693759E0,-1.855506375E-2,3.453635871E-1,1.034414864E1
1.448691311E0,-4.249707982E-2,3.980360329E-1,1.030584145E1
1.450688915E0,-1.143231317E-1,7.954735160E-1,9.702502251E0
1.452686571E0,-1.286883354E-1,9.151836038E-1,9.166201591E0
1.454684280E0,-1.191115379E-1,7.428010702E-1,9.261969566E0
1.456681988E0,-2.148796022E-1,5.560533404E-1,9.688137054E0
1.458679696E0,-2.340332121E-1,5.321113467E-1,9.769539833E0
1.460677405E0,-1.861491799E-1,4.554968774E-1,9.836577415E0
1.462675113E0,-2.100912035E-1,2.831143439E-1,9.817423820E0
1.464672821E0,-2.100912035E-1,1.777694821E-1,9.764751434E0
1.466670530E0,-7.122749835E-2,9.636662155E-2,1.030105305E1
1.468668238E0,2.454056777E-2,3.118447661E-1,9.683348656E0
1.470665738E0,3.411737457E-2,3.309983909E-1,9.099164009E0
1.472662874E0,-1.430535465E-1,-2.813187055E-2,9.376891136E0
1.474660009E0,-3.292027488E-2,-8.080431074E-2,1.043033981E1
1.476657144E0,1.298854351E-1,6.284779310E-2,9.975440979E0
1.478654280E0,1.011550203E-1,1.825578809E-1,8.917203903E0
1.480651415E0,7.242459804E-2,2.932897024E-2,9.458293915E0
1.482648551E0,4.369417951E-2,-1.813607812E-1,1.048301220E1
1.484645738E0,1.729810685E-1,-2.627636492E-1,1.055483818E1
1.486642978E0,1.346738487E-1,-2.244564146E-1,9.721655846E0
1.488640269E0,8.678980917E-2,6.284779310E-2,9.396044731E0
1.490637613E0,5.327098817E-2,2.926911712E-1,8.864531517E0
1.492635009E0,9.157821536E-2,1.496376097E-2,9.338583946E0
1.494632457E0,1.203086376E-1,5.327098817E-2,1.016218948E1
1.496629957E0,1.729810685E-1,3.022679687E-1,9.740809441E0
1.498627509E0,1.873462796E-1,4.985924959E-1,9.688137054E0
1.500625113E0,1.155202314E-1,2.208651006E-1,9.649829865E0
1.502622769E0,1.586158574E-1,-1.143231317E-1,1.027232265E1
1.504620478E0,1.059434265E-1,2.831143439E-1,1.013345909E1
1.506618238E0,8.200141042E-2,9.199720025E-1,9.012971878E0
1.508616051E0,2.454056777E-2,1.025316834E0,8.438364029E0
1.510613915E0,1.298854351E-1,3.980360329E-1,9.874884605E0
1.512611832E0,3.411737457E-2,-4.189853091E-3,1.140717411E1
1.514609801E0,-1.855506375E-2,2.639607489E-1,1.075116253E1
1.516607769E0,-4.189853091E-3,6.949170232E-1,8.945934296E0
1.518605738E0,-8.978256024E-3,7.619546652E-1,8.902838707E0
1.520603707E0,-3.292027488E-2,5.752069354E-1,9.573215485E0
1.522601676E0,6.284779310E-2,6.039373875E-1,1.005205631E1
1.524599488E0,-3.770867735E-2,3.309983909E-1,1.009515190E1
1.526597092E0,-6.643909961E-2,3.262099922E-1,9.410409927E0
1.528594696E0,-1.855506375E-2,3.357867897E-1,9.846154213E0
1.530592301E0,5.386953708E-3,3.501519859E-1,9.870096207E0
1.532589592E0,4.848258570E-2,5.416881442E-1,9.525331497E0
1.534586884E0,1.059434265E-1,5.799953341E-1,9.166201591E0
1.536584176E0,7.242459804E-2,3.166331649E-1,1.018134308E1
1.538581467E0,4.369417951E-2,1.107318252E-1,1.066497135E1
1.540578759E0,-8.978256024E-3,1.634042710E-1,9.860519409E0
1.542576051E0,-4.728548229E-2,3.118447661E-1,9.233239174E0
1.544573342E0,-1.669955701E-1,1.059434265E-1,9.247604370E0
1.546570634E0,-6.165069342E-2,-1.376665942E-2,1.019570827E1
1.548567978E0,-8.978256024E-3,1.921346933E-1,9.434351921E0
1.550565374E0,8.200141042E-2,2.543839216E-1,9.453505516E0
1.552562821E0,8.678980917E-2,2.208651006E-1,9.592369080E0
1.554560321E0,3.890577704E-2,1.975216344E-2,9.271546364E0
1.556557874E0,4.848258570E-2,-1.286883354E-1,1.007120991E1
1.558555478E0,7.242459804E-2,-1.622071713E-1,1.010472870E1
1.560553134E0,1.346738487E-1,-1.376665942E-2,1.020528507E1
1.562550842E0,1.442506462E-1,3.549404144E-1,9.362525940E0
1.564548603E0,1.155202314E-1,4.602852762E-1,9.056067467E0
1.566546415E0,1.250970364E-1,7.721300423E-2,1.039682102E1
1.568544228E0,1.538274586E-1,-5.207388848E-2,1.036809063E1
1.570542040E0,6.763619930E-2,2.639607489E-1,9.788693428E0
1.572539853E0,1.496376097E-2,5.799953341E-1,9.209297180E0
1.574537561E0,3.890577704E-2,4.650736749E-1,9.080010414E0
1.576535009E0,4.848258570E-2,2.926911712E-1,9.582792282E0
1.578532457E0,6.763619930E-2,-4.728548229E-2,1.039203262E1
1.580529905E0,6.284779310E-2,1.634042710E-1,1.020528507E1
1.582527353E0,5.805939063E-2,8.625111580E-1,8.701725960E0
1.584524801E0,7.721300423E-2,1.001374841E0,8.428787231E0
1.586522249E0,-4.189853091E-3,1.341351509E0,7.495048523E0
1.588519696E0,-3.770867735E-2,-1.780687571E0,1.083735371E1
1.590517144E0,2.304419130E-1,-1.526902080E0,1.639669037E1
1.592514592E0,2.304419130E-1,1.006163239E0,8.615534782E0
1.594512040E0,1.394622475E-1,1.403600693E0,5.852625847E0
1.596509488E0,1.155202314E-1,2.352303118E-1,9.592369080E0
1.598506936E0,3.890577704E-2,-3.585317135E-1,1.167053604E1
1.600504384E0,1.107318252E-1,5.327098817E-2,1.026274586E1
1.602501832E0,1.634042710E-1,7.236474752E-1,9.142259598E0
1.604499280E0,1.394622475E-1,7.332242727E-1,8.950722694E0
1.606496728E0,-8.978256024E-3,2.352303118E-1,9.520543098E0
1.608494176E0,-7.601590455E-2,3.118447661E-1,9.807847023E0
1.610491676E0,-8.978256024E-3,3.740940094E-1,9.874884605E0
1.612489228E0,5.985504249E-4,3.788824081E-1,9.774328232E0
1.614486780E0,4.848258570E-2,1.203086376E-1,9.668983459E0
1.616484332E0,1.107318252E-1,6.284779310E-2,1.079904652E1
1.618481884E0,1.346738487E-1,4.076128304E-1,9.329007149E0
1.620479436E0,9.157821536E-2,5.943605900E-1,9.022548676E0
1.622476988E0,9.636662155E-2,3.262099922E-1,9.573215485E0
1.624474540E0,3.411737457E-2,5.805939063E-2,1.010951710E1
1.626472092E0,2.454056777E-2,-4.728548229E-2,1.092833328E1
1.628469540E0,9.636662155E-2,2.112883031E-1,9.860519409E0
1.630466988E0,1.155202314E-1,4.363432527E-1,8.917203903E0
1.632464436E0,1.059434265E-1,4.459200799E-1,9.319430351E0
1.634461884E0,7.242459804E-2,5.752069354E-1,8.993818283E0
1.636459332E0,1.011550203E-1,4.315548539E-1,9.419986725E0
1.638456780E0,9.157821536E-2,1.346738487E-1,1.005205631E1
1.640454228E0,5.386953708E-3,-1.813607812E-1,1.043991661E1
1.642451728E0,2.454056777E-2,-1.376665942E-2,1.025316906E1
1.644449280E0,6.284779310E-2,1.969230920E-1,9.621099472E0
1.646446884E0,5.386953708E-3,3.740940094E-1,8.945934296E0
1.648444540E0,3.890577704E-2,6.284779310E-2,1.002811337E1
1.650442249E0,5.327098817E-2,-1.238999367E-1,9.999382973E0
1.652439957E0,-5.207388848E-2,2.735375464E-1,9.510966301E0
1.654437665E0,5.985504249E-4,6.135141850E-1,8.998606682E0
1.656435374E0,-1.286883354E-1,1.538274586E-1,9.601945877E0
1.658433082E0,-5.686229095E-2,-9.516951442E-2,1.076073933E1
1.660430790E0,-1.855506375E-2,2.932897024E-2,1.049737740E1
1.662428499E0,5.386953708E-3,3.932476342E-1,9.228450775E0
1.664426207E0,-9.516951442E-2,5.512649417E-1,8.864531517E0
1.666423707E0,-5.207388848E-2,6.087257862E-1,8.989029884E0
1.668421207E0,5.386953708E-3,3.788824081E-1,9.060855865E0
1.670418707E0,9.636662155E-2,-3.058592677E-1,1.092833328E1
1.672416207E0,1.346738487E-1,-4.399345517E-1,1.085171890E1
1.674413707E0,1.155202314E-1,3.411737457E-2,1.002332497E1
1.676411207E0,7.242459804E-2,1.394622475E-1,9.185355186E0
1.678408707E0,5.805939063E-2,1.298854351E-1,9.539696693E0
1.680406207E0,1.011550203E-1,1.729810685E-1,9.137471199E0
1.682403603E0,8.200141042E-2,7.242459804E-2,9.692925453E0
1.684400999E0,1.011550203E-1,-6.643909961E-2,1.009515190E1
1.686398394E0,1.250970364E-1,-6.165069342E-2,9.664195061E0
1.688395790E0,1.586158574E-1,-1.286883354E-1,9.989806175E0
1.690393186E0,1.203086376E-1,7.242459804E-2,1.021486187E1
1.692390582E0,1.107318252E-1,2.543839216E-1,9.046490669E0
1.694387978E0,9.636662155E-2,1.490390599E-1,9.980229378E0
1.696385374E0,1.155202314E-1,1.634042710E-1,9.870096207E0
1.698382769E0,1.346738487E-1,5.985504249E-4,9.458293915E0
1.700380165E0,1.921346933E-1,-5.207388848E-2,1.021486187E1
1.702377561E0,5.805939063E-2,4.369417951E-2,9.558850288E0
1.704374957E0,8.200141042E-2,3.932476342E-1,9.405621529E0
1.706372353E0,7.721300423E-2,3.788824081E-1,9.276334763E0
1.708369749E0,1.203086376E-1,3.501519859E-1,9.554061890E0
1.710367144E0,6.763619930E-2,3.214215636E-1,9.803058624E0
1.712364592E0,2.160767019E-1,-5.686229095E-2,1.087087250E1
1.714362092E0,1.969230920E-1,2.687491477E-1,9.846154213E0
1.716359592E0,2.932897024E-2,4.459200799E-1,8.103176117E0
1.718357092E0,-8.978256024E-3,-2.579752207E-1,1.039203262E1
1.720354592E0,-9.995792061E-2,-5.207388848E-2,1.056441498E1
1.722352092E0,-1.095347255E-1,5.805939063E-2,9.319430351E0
1.724349592E0,5.985504249E-4,8.200141042E-2,9.879673004E0
1.726347092E0,-4.728548229E-2,2.495955229E-1,9.568427086E0
1.728344592E0,-1.855506375E-2,3.740940094E-1,9.132682800E0
1.730342092E0,-2.334346622E-2,1.203086376E-1,9.664195061E0
1.732339644E0,-2.334346622E-2,1.490390599E-1,9.994594574E0
1.734337196E0,-5.207388848E-2,1.777694821E-1,9.515754700E0
1.736334749E0,-1.855506375E-2,1.586158574E-1,9.731232643E0
1.738332301E0,-3.292027488E-2,1.969230920E-1,1.015261269E1
1.740329853E0,-5.207388848E-2,4.267664552E-1,9.683348656E0
1.742327405E0,-7.601590455E-2,1.825578809E-1,9.530119896E0
1.744324957E0,-1.047463268E-1,1.975216344E-2,1.045907021E1
1.746322509E0,-1.478419602E-1,3.740940094E-1,9.319430351E0
1.748320061E0,-9.038111567E-2,4.794389009E-1,9.204508781E0
1.750317613E0,-1.376665942E-2,1.586158574E-1,1.021965027E1
1.752315165E0,-1.286883354E-1,2.831143439E-1,9.573215485E0
1.754312717E0,-1.765723825E-1,3.262099922E-1,9.228450775E0
1.756310269E0,-1.095347255E-1,-9.038111567E-2,1.037287903E1
1.758307821E0,-4.728548229E-2,-1.526303589E-1,1.108156300E1
1.760305374E0,-6.643909961E-2,4.746504724E-1,9.338583946E0
1.762302926E0,-6.643909961E-2,6.949170232E-1,8.615534782E0
1.764300478E0,-6.643909961E-2,4.315548539E-1,9.285911560E0
1.766298030E0,-8.080431074E-2,2.304419130E-1,1.009994030E1
1.768295582E0,-8.559270948E-2,4.028244317E-1,9.692925453E0
1.770293134E0,-5.207388848E-2,2.974795699E-1,9.530119896E0
1.772290530E0,-7.601590455E-2,1.634042710E-1,9.798270226E0
1.774287717E0,-8.978256024E-3,4.369417951E-2,1.002811337E1
1.776284905E0,-4.189853091E-3,9.636662155E-2,1.000417137E1
1.778282092E0,-4.189853091E-3,2.543839216E-1,9.041702271E0
1.780279280E0,9.157821536E-2,-9.995792061E-2,9.898826599E0
1.782276467E0,8.678980917E-2,-4.112041295E-1,1.038245583E1
1.784273655E0,9.636662155E-2,-2.675520480E-1,1.033457184E1
1.786270894E0,1.250970364E-1,1.825578809E-1,8.941145897E0
1.788268186E0,4.369417951E-2,7.721300423E-2,9.233239174E0
1.790265530E0,7.721300423E-2,-1.861491799E-1,1.043512821E1
1.792262926E0,-8.978256024E-3,8.678980917E-2,9.290699959E0
1.794260374E0,-3.770867735E-2,1.155202314E-1,9.056067467E0
1.796257874E0,4.848258570E-2,-2.962824702E-1,1.006642151E1
1.798255426E0,6.284779310E-2,-3.154360652E-1,1.049737740E1
1.800253030E0,1.975216344E-2,1.975216344E-2,9.726444244E0
1.802250686E0,-1.855506375E-2,3.597288132E-1,8.821435928E0
1.804248394E0,3.411737457E-2,2.591723204E-1,9.199720383E0
1.806246155E0,8.200141042E-2,-9.038111567E-2,9.932345390E0
1.808243915E0,2.454056777E-2,-2.196680009E-1,1.056441498E1
1.810241676E0,-2.334346622E-2,7.721300423E-2,9.961075783E0
1.812239436E0,5.985504249E-4,3.214215636E-1,8.931569099E0
1.814237196E0,8.200141042E-2,-1.376665942E-2,9.927556992E0
1.816234905E0,1.059434265E-1,-1.143231317E-1,1.080383492E1
1.818232196E0,-6.165069342E-2,3.309983909E-1,9.309853554E0
1.820229488E0,-1.191115379E-1,5.560533404E-1,8.826224327E0
1.822226780E0,-1.376665942E-2,2.879027426E-1,9.874884605E0
1.824224071E0,-9.995792061E-2,1.059434265E-1,9.850942612E0
1.826221363E0,-8.080431074E-2,6.763619930E-2,1.015261269E1
1.828218655E0,-1.191115379E-1,3.070563674E-1,1.009036350E1
1.830215946E0,-9.995792061E-2,4.076128304E-1,9.419986725E0
1.832213238E0,-9.995792061E-2,4.698620737E-1,9.573215485E0
1.834210530E0,-4.189853091E-3,3.788824081E-1,9.712079048E0
1.836207874E0,-7.601590455E-2,1.203086376E-1,1.018134308E1
1.838205269E0,-4.728548229E-2,8.200141042E-2,9.640253067E0
1.840202717E0,-1.376665942E-2,4.554968774E-1,9.582792282E0
1.842200217E0,4.369417951E-2,5.464765429E-1,9.094375610E0
1.844197769E0,2.454056777E-2,2.687491477E-1,9.664195061E0
1.846195321E0,1.017535757E-2,1.298854351E-1,9.956287384E0
1.848192874E0,1.496376097E-2,4.848258570E-2,1.008557510E1
1.850190426E0,4.848258570E-2,8.678980917E-2,9.831789017E0
1.852187978E0,5.805939063E-2,1.825578809E-1,9.625887871E0
1.854185530E0,1.490390599E-1,1.969230920E-1,9.922768593E0
1.856183082E0,1.059434265E-1,1.394622475E-1,9.870096207E0
1.858180634E0,1.346738487E-1,1.155202314E-1,9.463082314E0
1.860178186E0,2.017114908E-1,7.242459804E-2,9.338583946E0
1.862175738E0,1.873462796E-1,-1.376665942E-2,9.817423820E0
1.864173290E0,2.160767019E-1,3.411737457E-2,9.491812706E0
1.866170842E0,2.974795699E-1,-8.080431074E-2,9.405621529E0
1.868168394E0,3.357867897E-1,-1.861491799E-1,9.889249802E0
1.870165946E0,3.214215636E-1,1.825578809E-1,9.324218750E0
1.872163499E0,3.405751884E-1,1.442506462E-1,9.094375610E0
1.874161051E0,3.214215636E-1,-1.855506375E-2,9.697713852E0
1.876158603E0,3.022679687E-1,-1.957259923E-1,1.027711105E1
1.878156155E0,2.831143439E-1,-9.995792061E-2,1.021965027E1
1.880153707E0,2.687491477E-1,7.242459804E-2,9.621099472E0
1.882151259E0,2.304419130E-1,2.543839216E-1,9.396044731E0
1.884148811E0,2.064998895E-1,2.160767019E-1,9.783905029E0
1.886146363E0,1.250970364E-1,1.250970364E-1,1.023401546E1
1.888143915E0,8.678980917E-2,3.166331649E-1,9.568427086E0
1.890141467E0,1.442506462E-1,3.884592354E-1,9.745597839E0
1.892139019E0,1.634042710E-1,2.974795699E-1,1.001853657E1
1.894136571E0,1.346738487E-1,2.783259451E-1,1.006163311E1
1.896134019E0,2.208651006E-1,3.836708367E-1,9.879673004E0
1.898131467E0,2.352303118E-1,3.597288132E-1,9.788693428E0
1.900128759E0,2.639607489E-1,4.076128304E-1,9.994594574E0
1.902125999E0,3.022679687E-1,5.512649417E-1,9.898826599E0
1.904123238E0,3.309983909E-1,6.949170232E-1,9.534908295E0
1.906120478E0,2.831143439E-1,7.619546652E-1,9.266757965E0
1.908117717E0,1.873462796E-1,6.997054219E-1,9.429563522E0
1.910114957E0,1.873462796E-1,5.991489887E-1,9.597157478E0
1.912112196E0,1.298854351E-1,5.847837925E-1,9.846154213E0
1.914109436E0,1.250970364E-1,6.039373875E-1,9.573215485E0
1.916106676E0,1.586158574E-1,4.698620737E-1,9.525331497E0
1.918103915E0,1.586158574E-1,2.591723204E-1,9.903614998E0
1.920101155E0,1.681926697E-1,4.698620737E-1,9.946710587E0
1.922098394E0,2.017114908E-1,3.836708367E-1,9.712079048E0
1.924095686E0,1.729810685E-1,2.208651006E-1,1.000417137E1
1.926093030E0,1.107318252E-1,4.315548539E-1,9.961075783E0
1.928090426E0,1.155202314E-1,3.693056107E-1,9.563638687E0
1.930087874E0,1.346738487E-1,3.501519859E-1,9.841365814E0
1.932085374E0,6.284779310E-2,9.391255975E-1,9.376891136E0
1.934082926E0,-3.770867735E-2,5.321113467E-1,7.677007675E0
1.936080530E0,1.017535757E-2,-9.906009436E-1,1.238400841E1
1.938078186E0,4.848258570E-2,9.157821536E-2,1.170405483E1
1.940075842E0,1.975216344E-2,9.726444483E-1,7.969100475E0
1.942073499E0,1.017535757E-2,7.571662664E-1,8.385691643E0
1.944071155E0,-4.189853091E-3,4.650736749E-1,9.951498985E0
1.946068811E0,2.932897024E-2,3.788824081E-1,9.635464668E0
1.948066467E0,4.848258570E-2,1.250970364E-1,9.846154213E0
1.950064124E0,7.721300423E-2,1.975216344E-2,1.055962658E1
1.952061467E0,3.411737457E-2,2.256535143E-1,9.668983459E0
1.954058811E0,3.411737457E-2,-3.824737072E-1,1.001374817E1
1.956056155E0,2.932897024E-2,-2.627636492E-1,1.107198620E1
1.958053499E0,5.327098817E-2,1.006163239E0,8.328230858E0
1.960050842E0,2.454056777E-2,5.177460909E-1,7.734468460E0
1.962048186E0,5.805939063E-2,-1.478419602E-1,1.008078671E1
1.964045530E0,1.203086376E-1,-1.574187577E-1,1.092833328E1
1.966042874E0,1.490390599E-1,5.327098817E-2,9.870096207E0
1.968040217E0,1.298854351E-1,1.394622475E-1,9.314641953E0
1.970037613E0,1.681926697E-1,1.777694821E-1,9.295488358E0
1.972035061E0,1.250970364E-1,-4.189853091E-3,9.707290649E0
1.974032561E0,1.634042710E-1,-3.298012912E-1,1.034414864E1
1.976030113E0,1.681926697E-1,-2.483984232E-1,1.029147625E1
1.978027717E0,2.017114908E-1,-3.298012912E-1,9.788693428E0
1.980025374E0,2.160767019E-1,1.155202314E-1,9.472659111E0
1.982023082E0,2.256535143E-1,4.602852762E-1,8.251616478E0
1.984020790E0,2.064998895E-1,2.543839216E-1,8.270770073E0
1.986018499E0,2.400187254E-1,-4.399345517E-1,1.141196251E1
1.988016207E0,2.591723204E-1,-5.213374496E-1,1.156997967E1
1.990013915E0,2.208651006E-1,8.200141042E-2,8.941145897E0
1.992011624E0,1.681926697E-1,1.729810685E-1,9.525331497E0
1.994009332E0,1.538274586E-1,1.538274586E-1,9.922768593E0
1.996006936E0,1.203086376E-1,2.112883031E-1,9.400833130E0
1.998004384E0,1.059434265E-1,5.512649417E-1,9.012971878E0
2.000001780E0,2.017114908E-1,4.219780564E-1,9.396044731E0
2.001999176E0,2.448071241E-1,4.848258570E-2,1.055962658E1
2.003996571E0,2.448071241E-1,3.549404144E-1,9.941922188E0
2.005993967E0,2.400187254E-1,3.693056107E-1,9.554061890E0
2.007991363E0,2.017114908E-1,2.160767019E-1,1.005205631E1
2.009988759E0,1.777694821E-1,4.507084787E-1,9.980229378E0
2.011986155E0,1.107318252E-1,5.991489887E-1,9.434351921E0
2.013983551E0,9.157821536E-2,3.980360329E-1,9.534908295E0
2.015980946E0,1.155202314E-1,5.368997455E-1,9.501389503E0
2.017978342E0,1.250970364E-1,6.661866307E-1,9.367314339E0
2.019975738E0,4.369417951E-2,3.932476342E-1,9.702502251E0
2.021973186E0,8.200141042E-2,1.586158574E-1,1.043991661E1
2.023970686E0,1.729810685E-1,3.788824081E-1,1.009515190E1
2.025968186E0,1.107318252E-1,2.639607489E-1,9.683348656E0
2.027965738E0,1.298854351E-1,1.921346933E-1,9.769539833E0
2.029963290E0,7.721300423E-2,4.746504724E-1,9.223662376E0
2.031960842E0,1.250970364E-1,2.448071241E-1,9.913191795E0
2.033958394E0,1.634042710E-1,7.242459804E-2,1.019570827E1
2.035955946E0,1.346738487E-1,2.112883031E-1,9.726444244E0
2.037953499E0,1.490390599E-1,3.693056107E-1,9.515754700E0
2.039951051E0,1.777694821E-1,4.124012291E-1,9.453505516E0
2.041948603E0,2.017114908E-1,1.873462796E-1,1.009036350E1
2.043946155E0,2.352303118E-1,1.969230920E-1,1.027232265E1
2.045943707E0,1.586158574E-1,4.602852762E-1,9.214085579E0
2.047941259E0,1.538274586E-1,4.028244317E-1,9.238027573E0
2.049938811E0,9.636662155E-2,2.543839216E-1,9.573215485E0
2.051936363E0,5.805939063E-2,-3.292027488E-2,1.000895977E1
2.053933915E0,1.298854351E-1,6.763619930E-2,9.673771858E0
2.055931467E0,2.208651006E-1,4.698620737E-1,8.931569099E0
2.057929019E0,2.017114908E-1,4.363432527E-1,9.338583946E0
2.059926571E0,1.107318252E-1,6.763619930E-2,1.010951710E1
2.061924124E0,1.059434265E-1,8.678980917E-2,1.022443867E1
2.063921676E0,1.203086376E-1,2.208651006E-1,9.937133789E0
2.065919228E0,5.327098817E-2,1.969230920E-1,9.807847023E0
2.067916780E0,7.242459804E-2,1.586158574E-1,9.855731010E0
2.069914228E0,1.155202314E-1,1.250970364E-1,1.015740108E1
2.071911676E0,1.346738487E-1,5.368997455E-1,9.894038200E0
2.073909124E0,1.394622475E-1,6.613982320E-1,9.137471199E0
2.075906571E0,5.805939063E-2,4.938040972E-1,9.161413193E0
2.077904019E0,2.932897024E-2,3.740940094E-1,9.740809441E0
2.079901467E0,6.763619930E-2,3.453635871E-1,1.040639782E1
2.081898915E0,1.490390599E-1,5.177460909E-1,1.006642151E1
2.083896363E0,9.636662155E-2,3.884592354E-1,9.673771858E0
2.085893811E0,-3.292027488E-2,-4.728548229E-2,9.793481827E0
2.087891259E0,7.242459804E-2,3.549404144E-1,9.865307808E0
2.089888707E0,1.490390599E-1,8.002619147E-1,9.520543098E0
2.091886155E0,9.636662155E-2,3.022679687E-1,9.185355186E0
2.093883655E0,4.848258570E-2,-3.770867735E-2,9.793481827E0
2.095881155E0,1.442506462E-1,2.160767019E-1,9.922768593E0
2.097878655E0,1.442506462E-1,-9.038111567E-2,1.021486187E1
2.099876155E0,1.777694821E-1,1.777694821E-1,9.692925453E0
2.101873655E0,2.112883031E-1,2.831143439E-1,9.089587212E0
2.103871155E0,1.777694821E-1,-8.978256024E-3,9.601945877E0
2.105868655E0,3.166331649E-1,1.490390599E-1,9.750386238E0
2.107866155E0,3.405751884E-1,2.064998895E-1,9.678560257E0
2.109863655E0,3.501519859E-1,4.369417951E-2,9.903614998E0
2.111861155E0,3.262099922E-1,-9.516951442E-2,9.831789017E0
2.113858655E0,2.591723204E-1,1.107318252E-1,9.908403397E0
2.115856155E0,2.735375464E-1,3.788824081E-1,9.434351921E0
2.117853655E0,3.166331649E-1,2.687491477E-1,9.419986725E0
2.119851155E0,2.783259451E-1,6.763619930E-2,9.635464668E0
2.121848655E0,2.304419130E-1,1.975216344E-2,1.003290176E1
2.123846155E0,2.687491477E-1,1.586158574E-1,1.005684471E1
2.125843655E0,2.639607489E-1,3.693056107E-1,9.247604370E0
2.127841155E0,1.490390599E-1,3.788824081E-1,9.190143585E0
2.129838655E0,1.011550203E-1,1.203086376E-1,1.002332497E1
2.131836207E0,2.017114908E-1,4.507084787E-1,9.530119896E0
2.133833811E0,2.454056777E-2,3.788824081E-1,9.487024307E0
2.135831467E0,-1.143231317E-1,1.873462796E-1,9.874884605E0
2.137829176E0,-1.238999367E-1,2.160767019E-1,1.037287903E1
2.139826884E0,-9.995792061E-2,3.405751884E-1,1.028189945E1
2.141824592E0,-1.095347255E-1,4.171896577E-1,9.759963036E0
2.143822301E0,-1.717839688E-1,5.273229480E-1,9.649829865E0
2.145820009E0,-2.244564146E-1,4.938040972E-1,9.712079048E0
2.147817717E0,-1.574187577E-1,4.746504724E-1,9.654618263E0
2.149815426E0,-2.388216257E-1,5.512649417E-1,9.568427086E0
2.151813134E0,-1.909375787E-1,3.788824081E-1,9.783905029E0
2.153810842E0,-1.191115379E-1,6.087257862E-1,9.640253067E0
2.155808446E0,-9.038111567E-2,7.619546652E-1,9.113529205E0
2.157806051E0,-8.559270948E-2,2.591723204E-1,9.625887871E0
2.159803655E0,-1.191115379E-1,1.681926697E-1,1.025316906E1
2.161801207E0,-1.855506375E-2,3.693056107E-1,9.850942612E0
2.163798759E0,-9.038111567E-2,3.980360329E-1,9.640253067E0
2.165796311E0,-5.207388848E-2,4.363432527E-1,9.549273491E0
2.167793863E0,-8.559270948E-2,2.352303118E-1,9.606734276E0
2.169791415E0,-1.238999367E-1,2.926911712E-1,9.668983459E0
2.171788967E0,-1.526303589E-1,9.636662155E-2,9.817423820E0
2.173786519E0,-5.207388848E-2,1.975216344E-2,1.028189945E1
2.175784071E0,3.890577704E-2,2.064998895E-1,1.005205631E1
2.177781624E0,-8.080431074E-2,1.017535757E-2,1.001374817E1
2.179779176E0,-4.728548229E-2,3.309983909E-1,9.668983459E0
2.181776728E0,4.848258570E-2,4.411316514E-1,9.190143585E0
2.183774280E0,-4.189853091E-3,6.763619930E-2,9.405621529E0
2.185771832E0,4.369417951E-2,4.369417951E-2,1.001374817E1
2.187769384E0,2.064998895E-1,-4.249707982E-2,1.057878017E1
2.189766936E0,1.681926697E-1,1.729810685E-1,9.965864182E0
2.191764488E0,1.203086376E-1,1.969230920E-1,9.400833130E0
2.193762040E0,6.763619930E-2,2.687491477E-1,9.252392769E0
2.195759540E0,1.017535757E-2,2.352303118E-1,9.238027573E0
2.197757040E0,1.538274586E-1,2.543839216E-1,9.348160744E0
2.199754540E0,2.879027426E-1,3.597288132E-1,9.515754700E0
2.201751884E0,2.831143439E-1,2.831143439E-1,9.424775124E0
2.203749176E0,2.543839216E-1,-1.574187577E-1,1.002811337E1
2.205746467E0,2.448071241E-1,-1.909375787E-1,1.021486187E1
2.207743759E0,2.831143439E-1,1.394622475E-1,9.850942612E0
2.209741051E0,2.879027426E-1,6.763619930E-2,9.578003883E0
2.211738342E0,2.591723204E-1,1.059434265E-1,9.185355186E0
2.213735634E0,1.634042710E-1,1.496376097E-2,9.300276756E0
2.215732926E0,6.763619930E-2,2.932897024E-2,9.357737541E0
2.217730217E0,1.346738487E-1,-9.516951442E-2,9.745597839E0
2.219727509E0,1.538274586E-1,-1.765723825E-1,1.011909389E1
2.221724801E0,7.242459804E-2,-2.914940715E-1,1.009994030E1
2.223722144E0,2.454056777E-2,-7.122749835E-2,9.736021042E0
2.225719540E0,-5.207388848E-2,8.678980917E-2,9.247604370E0
2.227716988E0,-1.334767491E-1,-1.334767491E-1,9.443928719E0
2.229714488E0,-1.382651478E-1,4.848258570E-2,9.515754700E0
2.231711988E0,-9.038111567E-2,1.107318252E-1,9.707290649E0
2.233709488E0,-1.765723825E-1,7.721300423E-2,9.333795547E0
2.235706988E0,-2.053027898E-1,-5.500678420E-1,1.009515190E1
2.237704488E0,-1.478419602E-1,-2.292448133E-1,1.041597462E1
2.239701988E0,-1.238999367E-1,1.538274586E-1,9.764751434E0
2.241699488E0,-3.250128925E-1,-1.095347255E-1,9.740809441E0
2.243696988E0,-1.478419602E-1,-1.143231317E-1,9.783905029E0
2.245694488E0,-1.574187577E-1,1.490390599E-1,9.798270226E0
2.247691988E0,-2.148796022E-1,1.825578809E-1,9.894038200E0
2.249689488E0,-1.478419602E-1,5.327098817E-2,9.793481827E0
2.251686988E0,-1.861491799E-1,1.777694821E-1,9.783905029E0
2.253684176E0,-1.861491799E-1,3.214215636E-1,9.487024307E0
2.255681363E0,-2.627636492E-1,7.721300423E-2,9.922768593E0
2.257678551E0,-1.909375787E-1,2.304419130E-1,9.970652580E0
2.259675738E0,-1.622071713E-1,1.825578809E-1,9.683348656E0
2.261672926E0,-1.334767491E-1,4.507084787E-1,9.060855865E0
2.263670113E0,-1.047463268E-1,1.203086376E-1,9.300276756E0
2.265667301E0,-4.189853091E-3,-1.297058821E0,1.190516758E1
2.267664540E0,-4.189853091E-3,-3.345896900E-1,1.064581776E1
2.269661832E0,-4.728548229E-2,5.656301379E-1,8.941145897E0
2.271659176E0,-1.047463268E-1,3.453635871E-1,8.371326447E0
2.273656571E0,-4.728548229E-2,-1.813607812E-1,9.041702271E0
2.275653967E0,1.975216344E-2,-1.238999367E-1,9.309853554E0
2.277651363E0,8.678980917E-2,-2.627636492E-1,1.011909389E1
2.279648811E0,1.346738487E-1,-3.393780887E-1,1.055004978E1
2.281646311E0,7.242459804E-2,-3.154360652E-1,1.032978344E1
2.283643863E0,-4.189853091E-3,-6.165069342E-2,9.482235909E0
2.285641467E0,-1.855506375E-2,-6.643909961E-2,9.338583946E0
2.287639124E0,4.369417951E-2,-1.334767491E-1,9.597157478E0
2.289636832E0,5.386953708E-3,-1.376665942E-2,9.625887871E0
2.291634592E0,2.932897024E-2,-1.382651478E-1,9.716867447E0
2.293632405E0,9.157821536E-2,-8.978256024E-3,9.654618263E0
2.295630269E0,5.327098817E-2,9.636662155E-2,9.640253067E0
2.297628186E0,6.284779310E-2,-7.122749835E-2,9.774328232E0
2.299626155E0,6.763619930E-2,-1.382651478E-1,1.007120991E1
2.301624176E0,1.346738487E-1,1.394622475E-1,9.381679535E0
2.303622249E0,2.064998895E-1,1.777694821E-1,9.539696693E0
2.305620321E0,1.442506462E-1,9.157821536E-2,9.985017776E0
2.307618394E0,1.921346933E-1,1.975216344E-2,9.908403397E0
2.309616467E0,1.394622475E-1,1.729810685E-1,9.539696693E0
2.311614019E0,1.346738487E-1,3.118447661E-1,9.477447510E0
2.313611571E0,9.636662155E-2,4.028244317E-1,9.238027573E0
2.315609124E0,1.346738487E-1,-7.122749835E-2,9.913191795E0
2.317606676E0,1.346738487E-1,-1.717839688E-1,1.075595093E1
2.319604228E0,1.825578809E-1,2.064998895E-1,1.011909389E1
2.321601780E0,1.969230920E-1,4.938040972E-1,9.199720383E0
2.323599332E0,1.681926697E-1,2.879027426E-1,9.549273491E0
2.325596884E0,3.411737457E-2,2.974795699E-1,9.597157478E0
2.327594436E0,5.327098817E-2,2.783259451E-1,9.764751434E0
2.329591988E0,6.763619930E-2,3.262099922E-1,1.011909389E1
2.331589540E0,1.203086376E-1,3.070563674E-1,9.917980194E0
2.333587092E0,3.411737457E-2,2.352303118E-1,9.884461403E0
2.335584644E0,3.890577704E-2,4.315548539E-1,9.597157478E0
2.337582196E0,5.805939063E-2,6.135141850E-1,9.530119896E0
2.339579801E0,1.496376097E-2,4.507084787E-1,9.530119896E0
2.341577457E0,-7.601590455E-2,2.448071241E-1,9.606734276E0
2.343575113E0,-5.686229095E-2,2.495955229E-1,9.755174637E0
2.345572769E0,-8.080431074E-2,4.219780564E-1,9.673771858E0
2.347570426E0,-9.995792061E-2,2.783259451E-1,9.664195061E0
2.349568082E0,-1.622071713E-1,1.634042710E-1,9.817423820E0
2.351565738E0,-2.334346622E-2,1.975216344E-2,9.783905029E0
2.353563394E0,-2.813187055E-2,2.017114908E-1,9.745597839E0
2.355561051E0,-8.559270948E-2,4.315548539E-1,9.372102737E0
2.357558707E0,-6.165069342E-2,1.873462796E-1,9.487024307E0
2.359556363E0,-3.770867735E-2,1.017535757E-2,9.941922188E0
2.361554019E0,-6.643909961E-2,-3.770867735E-2,1.029147625E1
2.363551676E0,-3.770867735E-2,2.208651006E-1,9.908403397E0
2.365549332E0,-2.334346622E-2,3.645172119E-1,9.472659111E0
2.367546988E0,5.386953708E-3,3.788824081E-1,9.381679535E0
2.369544644E0,5.805939063E-2,5.512649417E-1,9.496601105E0
2.371542196E0,1.250970364E-1,3.980360329E-1,9.707290649E0
2.373539488E0,2.017114908E-1,3.890577704E-2,1.051174259E1
2.375536780E0,1.681926697E-1,5.752069354E-1,9.961075783E0
2.377534071E0,1.298854351E-1,7.763199210E-1,8.998606682E0
2.379531363E0,8.200141042E-2,4.794389009E-1,8.989029884E0
2.381528655E0,1.203086376E-1,3.411737457E-2,1.029626465E1
2.383525946E0,3.118447661E-1,-4.064157307E-1,1.246541119E1
2.385523290E0,2.064998895E-1,1.634042710E-1,9.295488358E0
2.387520686E0,1.155202314E-1,7.236474752E-1,8.232462883E0
2.389518134E0,2.256535143E-1,8.002619147E-1,8.807070732E0
2.391515634E0,2.448071241E-1,4.890156984E-1,9.822212219E0
2.393513186E0,2.352303118E-1,6.039373875E-1,9.089587212E0
2.395510790E0,1.298854351E-1,8.720879555E-1,8.787917137E0
2.397508446E0,1.969230920E-1,7.380126715E-1,9.654618263E0
2.399506155E0,2.400187254E-1,1.346738487E-1,1.081820011E1
2.401503915E0,2.543839216E-1,-1.574187577E-1,1.033457184E1
2.403501728E0,1.969230920E-1,7.721300423E-2,9.396044731E0
2.405499592E0,1.969230920E-1,1.011550203E-1,9.568427086E0
2.407497457E0,2.304419130E-1,-4.189853091E-3,1.029626465E1
2.409495321E0,2.400187254E-1,8.200141042E-2,1.037287903E1
2.411493186E0,1.825578809E-1,1.729810685E-1,9.740809441E0
2.413491051E0,2.064998895E-1,4.219780564E-1,9.132682800E0
2.415488915E0,1.298854351E-1,4.219780564E-1,9.491812706E0
2.417486780E0,1.777694821E-1,3.549404144E-1,9.635464668E0
2.419484644E0,3.070563674E-1,4.076128304E-1,9.917980194E0
2.421482509E0,2.879027426E-1,6.566098332E-1,9.056067467E0
2.423480165E0,2.112883031E-1,3.884592354E-1,9.755174637E0
2.425477665E0,1.634042710E-1,-1.334767491E-1,1.083735371E1
2.427475165E0,1.681926697E-1,1.394622475E-1,1.064102936E1
2.429472665E0,2.064998895E-1,7.140706778E-1,8.778340340E0
2.431470165E0,2.160767019E-1,4.698620737E-1,9.027337074E0
2.433467665E0,1.969230920E-1,2.495955229E-1,1.009515190E1
2.435465165E0,1.059434265E-1,6.087257862E-1,9.362525940E0
2.437462665E0,1.011550203E-1,5.752069354E-1,9.415198326E0
2.439460165E0,5.327098817E-2,7.721300423E-2,1.059793377E1
2.441457665E0,-1.376665942E-2,2.256535143E-1,9.726444244E0
2.443455165E0,3.890577704E-2,3.501519859E-1,9.391256332E0
2.445452665E0,5.805939063E-2,4.507084787E-1,9.410409927E0
2.447450165E0,1.250970364E-1,4.219780564E-1,9.443928719E0
2.449447665E0,3.214215636E-1,4.369417951E-2,1.097621727E1
2.451445165E0,3.453635871E-1,2.687491477E-1,1.011430550E1
2.453442665E0,1.059434265E-1,4.171896577E-1,9.305065155E0
2.455440165E0,1.681926697E-1,3.884592354E-1,9.376891136E0
2.457437665E0,1.155202314E-1,3.166331649E-1,9.927556992E0
2.459435165E0,2.783259451E-1,4.459200799E-1,9.319430351E0
2.461432665E0,3.357867897E-1,5.464765429E-1,9.520543098E0
2.463430113E0,3.357867897E-1,2.256535143E-1,9.879673004E0
2.465427561E0,3.549404144E-1,4.848258570E-2,1.014782429E1
2.467424905E0,3.884592354E-1,5.368997455E-1,9.530119896E0
2.469422249E0,2.448071241E-1,5.943605900E-1,9.151836395E0
2.471419592E0,1.155202314E-1,2.448071241E-1,1.009994030E1
2.473416936E0,5.386953708E-3,8.200141042E-2,1.058356857E1
2.475414280E0,-8.978256024E-3,2.304419130E-1,9.645041466E0
2.477411624E0,-5.207388848E-2,5.805939063E-2,9.434351921E0
2.479408967E0,-3.292027488E-2,1.777694821E-1,1.000417137E1
2.481406311E0,-3.292027488E-2,3.597288132E-1,9.324218750E0
2.483403655E0,-7.122749835E-2,4.363432527E-1,9.089587212E0
2.485400999E0,-1.095347255E-1,1.107318252E-1,9.611522675E0
2.487398342E0,3.890577704E-2,-1.622071713E-1,1.015261269E1
2.489395686E0,-1.238999367E-1,-4.112041295E-1,1.099058247E1
2.491393030E0,-3.770867735E-2,-9.516951442E-2,1.036330223E1
2.493390374E0,-4.249707982E-2,3.357867897E-1,8.706514359E0
2.495387717E0,-1.095347255E-1,3.693056107E-1,8.380903244E0
2.497385061E0,-6.165069342E-2,2.687491477E-1,9.477447510E0
2.499382405E0,-1.855506375E-2,1.059434265E-1,1.014303589E1
2.501379749E0,-5.207388848E-2,2.591723204E-1,9.831789017E0
2.503377092E0,-1.376665942E-2,2.831143439E-1,9.707290649E0
2.505374488E0,-5.207388848E-2,2.639607489E-1,9.750386238E0
2.507371936E0,-1.430535465E-1,-7.601590455E-2,1.043991661E1
2.509369436E0,-1.526303589E-1,-8.080431074E-2,1.011909389E1
2.511366988E0,-1.526303589E-1,1.011550203E-1,9.759963036E0
2.513364592E0,-1.855506375E-2,2.591723204E-1,9.463082314E0
2.515362249E0,-2.334346622E-2,3.549404144E-1,9.573215485E0
2.517359957E0,-3.292027488E-2,6.183025837E-1,9.439140320E0
2.519357665E0,3.411737457E-2,3.597288132E-1,9.759963036E0
2.521355374E0,5.327098817E-2,1.777694821E-1,1.040639782E1
2.523353082E0,-8.978256024E-3,4.938040972E-1,9.975440979E0
2.525350790E0,-3.770867735E-2,6.757634282E-1,9.017760277E0
2.527348499E0,-1.191115379E-1,4.794389009E-1,9.305065155E0
2.529345999E0,4.848258570E-2,1.442506462E-1,9.985017776E0
2.531343342E0,-9.995792061E-2,5.805939063E-2,1.016218948E1
2.533340634E0,-2.675520480E-1,-8.080431074E-2,1.013345909E1
2.535337926E0,2.454056777E-2,2.208651006E-1,9.640253067E0
2.537335217E0,2.448071241E-1,8.050503135E-1,8.792705536E0
2.539332509E0,2.448071241E-1,7.332242727E-1,8.701725960E0
2.541329801E0,5.805939063E-2,5.386953708E-3,9.362525940E0
2.543327092E0,1.496376097E-2,-5.548562407E-1,1.048301220E1
2.545324384E0,-1.855506375E-2,-4.303577542E-1,1.085650730E1
2.547321676E0,-3.292027488E-2,1.203086376E-1,1.015740108E1
2.549318967E0,-1.095347255E-1,8.678980917E-2,9.453505516E0
2.551316259E0,4.848258570E-2,-8.978256024E-3,9.410409927E0
2.553313551E0,1.975216344E-2,-3.292027488E-2,9.506177902E0
2.555310842E0,1.496376097E-2,1.011550203E-1,9.659406662E0
2.557308186E0,6.284779310E-2,1.921346933E-1,9.501389503E0
2.559305582E0,3.411737457E-2,2.687491477E-1,9.113529205E0
2.561303030E0,-7.601590455E-2,-6.165069342E-2,9.606734276E0
2.563300530E0,3.411737457E-2,-1.813607812E-1,1.001374817E1
2.565298082E0,1.496376097E-2,-7.601590455E-2,1.004726696E1
2.567295686E0,9.157821536E-2,-9.516951442E-2,9.961075783E0
2.569293342E0,1.250970364E-1,-9.038111567E-2,9.999382973E0
2.571291051E0,1.586158574E-1,1.394622475E-1,9.597157478E0
2.573288811E0,9.157821536E-2,1.203086376E-1,9.606734276E0
2.575286571E0,1.346738487E-1,-8.978256024E-3,9.759963036E0
2.577284384E0,1.017535757E-2,-4.249707982E-2,1.005205631E1
2.579282196E0,4.848258570E-2,3.501519859E-1,9.501389503E0
2.581280009E0,7.721300423E-2,3.884592354E-1,9.194931984E0
2.583277821E0,1.346738487E-1,1.825578809E-1,9.769539833E0
2.585275634E0,7.721300423E-2,2.735375464E-1,1.005684471E1
2.587273446E0,9.157821536E-2,2.112883031E-1,9.879673004E0
2.589271259E0,1.634042710E-1,2.543839216E-1,9.759963036E0
2.591269071E0,4.369417951E-2,4.842272997E-1,9.515754700E0
2.593266884E0,-5.207388848E-2,8.816647530E-1,8.917203903E0
2.595264540E0,4.369417951E-2,-5.452794433E-1,1.098100567E1
2.597262092E0,-1.855506375E-2,-1.765723825E-1,1.066975975E1
2.599259644E0,-8.080431074E-2,7.044938207E-1,9.592369080E0
2.601256988E0,-8.080431074E-2,1.034893632E0,7.811082840E0
2.603254332E0,-1.376665942E-2,3.693056107E-1,9.309853554E0
2.605251676E0,1.017535757E-2,4.369417951E-2,1.082298851E1
2.607249019E0,-4.249707982E-2,4.124012291E-1,1.030105305E1
2.609246363E0,-1.334767491E-1,5.799953341E-1,9.281123161E0
2.611243707E0,-5.686229095E-2,4.315548539E-1,9.032125473E0
2.613241051E0,-4.728548229E-2,1.059434265E-1,1.002811337E1
2.615238394E0,-5.207388848E-2,1.729810685E-1,1.021486187E1
2.617235738E0,-6.165069342E-2,2.352303118E-1,9.956287384E0
2.619233082E0,2.454056777E-2,2.256535143E-1,9.908403397E0
2.621230478E0,2.932897024E-2,2.160767019E-1,9.956287384E0
2.623227926E0,1.107318252E-1,4.842272997E-1,9.491812706E0
2.625225426E0,1.777694821E-1,3.884592354E-1,9.386467934E0
2.627222978E0,9.636662155E-2,3.166331649E-1,9.611522675E0
2.629220582E0,1.298854351E-1,3.022679687E-1,1.002332497E1
2.631218238E0,1.490390599E-1,3.645172119E-1,9.807847023E0
2.633215894E0,1.538274586E-1,4.554968774E-1,9.305065155E0
2.635213551E0,1.203086376E-1,5.704185367E-1,8.912415504E0
2.637211207E0,1.634042710E-1,1.011550203E-1,1.003290176E1
2.639208863E0,7.721300423E-2,3.309983909E-1,9.855731010E0
2.641206519E0,1.634042710E-1,4.076128304E-1,9.525331497E0
2.643204176E0,2.208651006E-1,1.490390599E-1,1.000895977E1
2.645201832E0,1.825578809E-1,2.400187254E-1,9.965864182E0
2.647199488E0,1.203086376E-1,1.729810685E-1,9.961075783E0
2.649197144E0,8.200141042E-2,2.256535143E-1,9.683348656E0
2.651194801E0,6.284779310E-2,4.028244317E-1,9.539696693E0
2.653192457E0,1.298854351E-1,3.932476342E-1,9.645041466E0
2.655190113E0,8.678980917E-2,2.831143439E-1,9.898826599E0
2.657187769E0,2.454056777E-2,9.636662155E-2,1.004247856E1
2.659185426E0,9.636662155E-2,2.017114908E-1,9.822212219E0
2.661183082E0,1.250970364E-1,5.991489887E-1,9.099164009E0
2.663180738E0,1.346738487E-1,5.225345492E-1,9.238027573E0
2.665178342E0,1.059434265E-1,4.369417951E-2,9.884461403E0
2.667175686E0,2.454056777E-2,-4.189853091E-3,1.009994030E1
2.669173030E0,1.394622475E-1,1.490390599E-1,9.989806175E0
2.671170374E0,1.346738487E-1,1.250970364E-1,1.004726696E1
2.673167717E0,6.763619930E-2,1.250970364E-1,9.831789017E0
2.675165061E0,1.681926697E-1,2.448071241E-1,9.295488358E0
2.677162405E0,9.157821536E-2,1.442506462E-1,9.419986725E0
2.679159801E0,1.011550203E-1,2.495955229E-1,9.798270226E0
2.681157249E0,7.721300423E-2,2.112883031E-1,1.012867069E1
2.683154749E0,1.107318252E-1,2.256535143E-1,9.740809441E0
2.685152301E0,1.011550203E-1,-4.189853091E-3,9.855731010E0
2.687149905E0,5.327098817E-2,-4.728548229E-2,9.989806175E0
2.689147561E0,1.017535757E-2,1.442506462E-1,9.496601105E0
2.691145269E0,7.242459804E-2,2.783259451E-1,9.534908295E0
2.693143030E0,5.386953708E-3,4.698620737E-1,9.166201591E0
2.695140842E0,2.932897024E-2,4.890156984E-1,9.180566788E0
2.697138707E0,2.932897024E-2,3.357867897E-1,9.405621529E0
2.699136624E0,3.890577704E-2,-3.292027488E-2,9.779116631E0
2.701134592E0,8.678980917E-2,-1.574187577E-1,1.014303589E1
2.703132613E0,1.298854351E-1,-6.165069342E-2,9.951498985E0
2.705130634E0,8.200141042E-2,2.400187254E-1,9.357737541E0
2.707128655E0,3.411737457E-2,1.107318252E-1,9.683348656E0
2.709126676E0,5.985504249E-4,9.636662155E-2,9.759963036E0
2.711124696E0,-2.334346622E-2,1.975216344E-2,9.951498985E0
2.713122665E0,-7.122749835E-2,-1.855506375E-2,9.889249802E0
2.715120165E0,-1.143231317E-1,9.636662155E-2,9.482235909E0
2.717117561E0,-1.047463268E-1,1.729810685E-1,9.448717117E0
2.719114957E0,3.890577704E-2,1.921346933E-1,9.894038200E0
2.721112353E0,4.369417951E-2,2.064998895E-1,1.012388229E1
2.723109749E0,1.496376097E-2,8.678980917E-2,1.036330223E1
2.725107144E0,-3.292027488E-2,2.735375464E-1,9.798270226E0
2.727104540E0,-1.855506375E-2,3.214215636E-1,9.688137054E0
2.729101936E0,2.454056777E-2,5.177460909E-1,9.281123161E0
2.731099332E0,5.805939063E-2,4.171896577E-1,9.506177902E0
2.733096728E0,3.890577704E-2,2.400187254E-1,9.812635422E0
2.735094124E0,3.411737457E-2,3.890577704E-2,1.031541824E1
2.737091519E0,3.890577704E-2,2.831143439E-1,9.865307808E0
2.739088915E0,1.203086376E-1,4.363432527E-1,9.467870712E0
2.741086363E0,1.346738487E-1,4.315548539E-1,9.338583946E0
2.743083863E0,6.763619930E-2,1.634042710E-1,9.635464668E0
2.745081415E0,1.250970364E-1,3.411737457E-2,1.013345909E1
2.747079019E0,1.490390599E-1,1.634042710E-1,9.803058624E0
2.749076676E0,1.586158574E-1,-4.249707982E-2,9.946710587E0
2.751074384E0,1.394622475E-1,-1.430535465E-1,1.001853657E1
2.753072092E0,2.932897024E-2,2.932897024E-2,9.573215485E0
2.755069801E0,7.721300423E-2,1.107318252E-1,9.463082314E0
2.757067509E0,1.346738487E-1,-1.855506375E-2,9.692925453E0
2.759064853E0,1.490390599E-1,3.890577704E-2,9.668983459E0
2.761062196E0,1.250970364E-1,6.284779310E-2,9.798270226E0
2.763059540E0,8.200141042E-2,1.969230920E-1,9.381679535E0
2.765056884E0,6.284779310E-2,1.442506462E-1,9.329007149E0
2.767054228E0,1.681926697E-1,-9.995792061E-2,9.549273491E0
2.769051571E0,1.346738487E-1,-2.867056429E-1,9.946710587E0
2.771048915E0,2.926911712E-1,-2.196680009E-1,9.980229378E0
2.773046259E0,2.400187254E-1,1.011550203E-1,9.362525940E0
2.775043603E0,2.495955229E-1,1.975216344E-2,9.601945877E0
2.777040946E0,3.405751884E-1,6.284779310E-2,9.630676270E0
2.779038290E0,2.304419130E-1,9.157821536E-2,9.597157478E0
2.781035634E0,1.634042710E-1,-4.728548229E-2,9.874884605E0
2.783032978E0,1.298854351E-1,-1.047463268E-1,9.582792282E0
2.785030374E0,1.298854351E-1,-9.038111567E-2,9.491812706E0
2.787027821E0,4.369417951E-2,1.538274586E-1,9.276334763E0
2.789025321E0,6.284779310E-2,-4.189853091E-3,9.625887871E0
2.791022821E0,7.242459804E-2,-1.478419602E-1,1.014782429E1
2.793020321E0,6.284779310E-2,-2.579752207E-1,1.020528507E1
2.795017821E0,-1.855506375E-2,-1.382651478E-1,9.721655846E0
2.797015321E0,7.242459804E-2,-8.559270948E-2,9.606734276E0
2.799012821E0,1.490390599E-1,-2.627636492E-1,1.005205631E1
2.801010321E0,1.490390599E-1,-3.292027488E-2,9.740809441E0
2.803007821E0,1.634042710E-1,-2.148796022E-1,1.002332497E1
2.805005321E0,1.538274586E-1,-2.813187055E-2,9.788693428E0
2.807002821E0,6.284779310E-2,2.591723204E-1,9.012971878E0
2.809000321E0,9.636662155E-2,4.848258570E-2,9.530119896E0
2.810997821E0,1.921346933E-1,2.932897024E-2,9.740809441E0
2.812995321E0,1.107318252E-1,1.346738487E-1,9.376891136E0
2.814992821E0,2.495955229E-1,2.932897024E-2,9.429563522E0
2.816990321E0,2.831143439E-1,-2.340332121E-1,1.010472870E1
2.818987821E0,2.112883031E-1,-8.978256024E-3,9.683348656E0
2.820985321E0,2.112883031E-1,5.327098817E-2,9.453505516E0
2.822982821E0,2.017114908E-1,-1.574187577E-1,9.860519409E0
2.824980321E0,1.873462796E-1,-2.292448133E-1,1.018613148E1
2.826977821E0,1.250970364E-1,-3.633201122E-1,1.040639782E1
2.828975321E0,1.681926697E-1,-3.106476665E-1,9.932345390E0
2.830972821E0,1.729810685E-1,3.411737457E-2,9.376891136E0
2.832970321E0,1.873462796E-1,3.501519859E-1,8.936357498E0
2.834967874E0,8.678980917E-2,2.974795699E-1,9.487024307E0
2.836965426E0,-2.813187055E-2,-1.574187577E-1,1.039682102E1
2.838962978E0,3.890577704E-2,-2.100912035E-1,1.046864700E1
2.840960530E0,-8.978256024E-3,2.639607489E-1,9.477447510E0
2.842958082E0,-4.249707982E-2,5.033808947E-1,8.941145897E0
2.844955634E0,2.454056777E-2,1.729810685E-1,9.889249802E0
2.846953186E0,8.678980917E-2,-1.334767491E-1,1.055962658E1
2.848950738E0,9.157821536E-2,1.059434265E-1,9.736021042E0
2.850948290E0,4.848258570E-2,2.352303118E-1,9.348160744E0
2.852945842E0,8.678980917E-2,2.932897024E-2,9.688137054E0
2.854943394E0,2.112883031E-1,-1.909375787E-1,1.023401546E1
2.856940946E0,1.873462796E-1,4.848258570E-2,9.879673004E0
2.858938499E0,1.825578809E-1,2.783259451E-1,9.075222015E0
2.860936051E0,2.160767019E-1,-4.189853091E-3,9.822212219E0
2.862933603E0,2.352303118E-1,2.926911712E-1,9.544485092E0
2.864931155E0,2.687491477E-1,6.763619930E-2,9.937133789E0
2.866928707E0,2.352303118E-1,-4.926069975E-1,1.119648457E1
2.868926259E0,2.160767019E-1,-1.669955701E-1,1.004247856E1
2.870923811E0,2.064998895E-1,3.453635871E-1,8.874108315E0
2.872921363E0,1.586158574E-1,4.650736749E-1,8.874108315E0
2.874918915E0,1.298854351E-1,3.166331649E-1,9.515754700E0
2.876916467E0,1.059434265E-1,8.678980917E-2,1.005684471E1
2.878914019E0,2.160767019E-1,-1.855506375E-2,1.023880386E1
2.880911571E0,2.112883031E-1,3.411737457E-2,1.025316906E1
2.882909124E0,1.634042710E-1,3.740940094E-1,9.391256332E0
2.884906676E0,1.394622475E-1,5.416881442E-1,9.065644264E0
2.886904280E0,2.454056777E-2,3.693056107E-1,9.501389503E0
2.888901936E0,5.805939063E-2,1.681926697E-1,9.903614998E0
2.890899644E0,8.678980917E-2,7.242459804E-2,1.007599831E1
2.892897353E0,-1.855506375E-2,-3.292027488E-2,1.008557510E1
2.894895061E0,-1.376665942E-2,1.298854351E-1,9.726444244E0
2.896892769E0,-4.728548229E-2,2.591723204E-1,9.712079048E0
2.898890478E0,-1.376665942E-2,4.794389009E-1,9.415198326E0
2.900888134E0,1.975216344E-2,3.309983909E-1,9.587580681E0
2.902885426E0,7.242459804E-2,1.059434265E-1,1.031541824E1
2.904882717E0,1.155202314E-1,3.549404144E-1,9.879673004E0
2.906880009E0,1.346738487E-1,6.613982320E-1,9.285911560E0
2.908877301E0,2.495955229E-1,3.788824081E-1,9.922768593E0
2.910874592E0,2.687491477E-1,3.357867897E-1,1.022443867E1
2.912871884E0,2.735375464E-1,9.151836038E-1,8.874108315E0
2.914869176E0,2.064998895E-1,1.729810685E-1,9.496601105E0
2.916866467E0,2.160767019E-1,-3.345896900E-1,1.073200893E1
2.918863759E0,3.309983909E-1,6.709750295E-1,8.625111580E0
2.920861103E0,3.884592354E-1,9.391255975E-1,8.242039680E0
2.922858499E0,4.267664552E-1,3.980360329E-1,9.530119896E0
2.924855946E0,4.315548539E-1,-1.574187577E-1,1.082777691E1
2.926853446E0,3.740940094E-1,1.155202314E-1,9.783905029E0
2.928850999E0,3.022679687E-1,1.442506462E-1,9.573215485E0
2.930848603E0,3.597288132E-1,2.400187254E-1,9.568427086E0
2.932846259E0,3.262099922E-1,3.980360329E-1,9.285911560E0
2.934843967E0,2.448071241E-1,3.836708367E-1,9.530119896E0
2.936841676E0,1.011550203E-1,3.166331649E-1,9.654618263E0
2.938839384E0,8.678980917E-2,3.411737457E-2,1.030105305E1
2.940837092E0,1.346738487E-1,2.017114908E-1,9.989806175E0
2.942834488E0,7.242459804E-2,5.273229480E-1,9.329007149E0
2.944831780E0,4.848258570E-2,4.602852762E-1,9.434351921E0
2.946829071E0,-4.189853091E-3,1.825578809E-1,1.027711105E1
2.948826207E0,1.490390599E-1,5.895721912E-1,9.429563522E0
2.950823342E0,1.538274586E-1,9.056068063E-1,8.907627106E0
2.952820478E0,1.825578809E-1,4.602852762E-1,1.013824749E1
2.954817613E0,1.394622475E-1,2.932897024E-2,1.094748688E1
2.956814749E0,1.107318252E-1,5.177460909E-1,9.568427086E0
2.958811884E0,7.721300423E-2,7.858967185E-1,8.907627106E0
2.960809019E0,2.932897024E-2,3.980360329E-1,9.961075783E0
2.962806155E0,3.890577704E-2,1.681926697E-1,1.041118622E1
2.964803342E0,3.890577704E-2,3.166331649E-1,9.664195061E0
2.966800582E0,5.327098817E-2,9.636662155E-2,1.011909389E1
2.968797874E0,3.411737457E-2,6.326677799E-1,9.099164009E0
2.970795269E0,-2.334346622E-2,6.709750295E-1,9.003395081E0
2.972792769E0,5.985504249E-4,-4.728548229E-2,1.065539455E1
2.974790374E0,3.890577704E-2,-9.516951442E-2,1.070327854E1
2.976788082E0,5.327098817E-2,3.501519859E-1,9.573215485E0
2.978785894E0,-2.813187055E-2,6.087257862E-1,8.969876289E0
2.980783811E0,-4.728548229E-2,6.422445774E-1,9.175778389E0
2.982781780E0,8.678980917E-2,2.831143439E-1,1.004726696E1
2.984779801E0,1.155202314E-1,4.076128304E-1,9.879673004E0
2.986777874E0,7.721300423E-2,1.107318252E-1,1.039203262E1
2.988775946E0,7.721300423E-2,3.262099922E-1,9.659406662E0
2.990774019E0,6.763619930E-2,4.985924959E-1,9.281123161E0
2.992772092E0,1.155202314E-1,4.171896577E-1,9.487024307E0
2.994770165E0,1.681926697E-1,1.394622475E-1,9.951498985E0
2.996768238E0,1.490390599E-1,-4.249707982E-2,1.023880386E1
2.998766259E0,1.969230920E-1,1.017535757E-2,9.712079048E0
3.000763967E0,1.825578809E-1,2.112883031E-1,9.386467934E0
3.002761676E0,2.112883031E-1,1.107318252E-1,9.774328232E0
3.004759071E0,3.118447661E-1,6.763619930E-2,9.807847023E0
3.006756363E0,2.495955229E-1,2.932897024E-2,9.558850288E0
3.008753655E0,3.262099922E-1,-4.728548229E-2,9.870096207E0
3.010750946E0,2.495955229E-1,2.160767019E-1,9.285911560E0
3.012748238E0,1.586158574E-1,6.284779310E-2,9.491812706E0
3.014745530E0,1.634042710E-1,-2.340332121E-1,1.018613148E1
3.016742821E0,2.591723204E-1,-2.483984232E-1,9.917980194E0
3.018740113E0,3.022679687E-1,1.017535757E-2,9.496601105E0
3.020737405E0,2.495955229E-1,2.591723204E-1,9.170989990E0
3.022734749E0,1.442506462E-1,1.586158574E-1,9.314641953E0
3.024732144E0,1.586158574E-1,-6.643909961E-2,9.831789017E0
3.026729592E0,2.208651006E-1,1.346738487E-1,9.539696693E0
3.028727092E0,3.022679687E-1,-2.334346622E-2,1.016218948E1
3.030724644E0,2.017114908E-1,1.490390599E-1,9.980229378E0
3.032722249E0,1.873462796E-1,4.650736749E-1,9.305065155E0
3.034719905E0,1.394622475E-1,4.171896577E-1,9.525331497E0
3.036717561E0,4.848258570E-2,1.107318252E-1,1.034414864E1
3.038715217E0,1.011550203E-1,1.681926697E-1,1.024359226E1
3.040712874E0,-9.038111567E-2,3.405751884E-1,9.467870712E0
3.042710530E0,-3.770867735E-2,2.735375464E-1,9.927556992E0
3.044708186E0,1.017535757E-2,6.326677799E-1,9.343372345E0
3.046705842E0,-3.292027488E-2,5.129576921E-1,9.534908295E0
3.048703499E0,1.017535757E-2,3.453635871E-1,1.000417137E1
3.050701155E0,1.496376097E-2,2.974795699E-1,1.005205631E1
3.052698811E0,-2.334346622E-2,3.884592354E-1,9.755174637E0
3.054696467E0,6.284779310E-2,3.214215636E-1,9.812635422E0
3.056694019E0,-4.189853091E-3,3.405751884E-1,9.726444244E0
3.058691571E0,-1.855506375E-2,4.602852762E-1,9.376891136E0
3.060689124E0,-8.559270948E-2,2.639607489E-1,9.817423820E0
3.062686519E0,-1.238999367E-1,1.873462796E-1,9.989806175E0
3.064683863E0,2.932897024E-2,4.124012291E-1,9.386467934E0
3.066681207E0,5.805939063E-2,1.729810685E-1,1.011909389E1
3.068678551E0,5.805939063E-2,-2.334346622E-2,1.058835697E1
3.070675894E0,4.848258570E-2,2.495955229E-1,9.621099472E0
3.072673238E0,-3.292027488E-2,5.177460909E-1,8.859743118E0
3.074670582E0,-3.292027488E-2,3.740940094E-1,9.463082314E0
3.076667926E0,4.848258570E-2,-8.978256024E-3,1.010951710E1
3.078665269E0,3.890577704E-2,8.678980917E-2,1.018134308E1
3.080662613E0,6.284779310E-2,3.453635871E-1,9.597157478E0
3.082659957E0,1.634042710E-1,3.453635871E-1,9.649829865E0
3.084657301E0,1.011550203E-1,2.926911712E-1,9.913191795E0
3.086654696E0,1.250970364E-1,2.687491477E-1,9.745597839E0
3.088652144E0,1.538274586E-1,2.879027426E-1,9.822212219E0
3.090649644E0,3.501519859E-1,2.591723204E-1,9.889249802E0
3.092647196E0,2.974795699E-1,6.278793812E-1,9.458293915E0
3.094644801E0,1.825578809E-1,4.507084787E-1,9.525331497E0
3.096642405E0,3.309983909E-1,1.586158574E-1,1.001853657E1
3.098640009E0,3.262099922E-1,3.070563674E-1,9.630676270E0
3.100637613E0,4.411316514E-1,3.932476342E-1,9.391256332E0
3.102635217E0,4.028244317E-1,4.602852762E-1,9.439140320E0
3.104632821E0,3.549404144E-1,6.763619930E-2,9.850942612E0
3.106630426E0,2.783259451E-1,-1.478419602E-1,1.005205631E1
3.108628030E0,3.597288132E-1,-7.601590455E-2,9.903614998E0
3.110625530E0,3.788824081E-1,1.634042710E-1,9.458293915E0
3.112623030E0,3.070563674E-1,4.848258570E-2,9.889249802E0
3.114620478E0,1.777694821E-1,2.400187254E-1,9.290699959E0
3.116617926E0,2.304419130E-1,2.831143439E-1,9.238027573E0
3.118615321E0,1.298854351E-1,-1.376665942E-2,1.009515190E1
3.120612717E0,1.394622475E-1,-1.574187577E-1,1.049737740E1
3.122610113E0,2.208651006E-1,-1.957259923E-1,1.046864700E1
3.124607509E0,1.681926697E-1,1.298854351E-1,9.736021042E0
3.126604905E0,1.346738487E-1,8.050503135E-1,8.725667953E0
3.128602301E0,2.304419130E-1,7.284358740E-1,8.921992302E0
3.130599696E0,2.064998895E-1,1.059434265E-1,1.065539455E1
3.132597092E0,1.298854351E-1,3.022679687E-1,1.052610779E1
3.134594488E0,1.250970364E-1,7.619546652E-1,9.491812706E0
3.136591884E0,1.011550203E-1,7.523778677E-1,9.285911560E0
3.138589280E0,6.284779310E-2,7.332242727E-1,9.381679535E0
3.140586676E0,-4.189853091E-3,5.847837925E-1,9.764751434E0
3.142584071E0,8.678980917E-2,5.752069354E-1,1.006163311E1
3.144581467E0,9.636662155E-2,6.326677799E-1,9.673771858E0
3.146578863E0,4.369417951E-2,4.698620737E-1,9.812635422E0
3.148576259E0,-8.978256024E-3,3.501519859E-1,9.894038200E0
3.150573707E0,-1.191115379E-1,5.464765429E-1,9.453505516E0
3.152571207E0,-1.238999367E-1,7.906851172E-1,8.912415504E0
3.154568759E0,-1.047463268E-1,5.033808947E-1,9.285911560E0
3.156566363E0,-5.207388848E-2,1.975216344E-2,1.042555141E1
3.158564019E0,8.200141042E-2,1.729810685E-1,1.045428181E1
3.160561728E0,1.346738487E-1,4.650736749E-1,9.774328232E0
3.162559488E0,1.017535757E-2,3.166331649E-1,9.793481827E0
3.164557249E0,-5.686229095E-2,2.208651006E-1,9.611522675E0
3.166555009E0,-6.643909961E-2,3.890577704E-2,9.769539833E0
3.168552769E0,-8.978256024E-3,1.777694821E-1,9.649829865E0
3.170550530E0,-4.189853091E-3,3.070563674E-1,9.443928719E0
3.172548290E0,-1.095347255E-1,-1.526303589E-1,9.937133789E0
3.174546051E0,2.932897024E-2,-9.038111567E-2,9.975440979E0
3.176543603E0,-8.978256024E-3,4.848258570E-2,9.621099472E0
3.178541155E0,-8.080431074E-2,-5.686229095E-2,9.683348656E0
3.180538603E0,-1.095347255E-1,1.975216344E-2,9.501389503E0
3.182536051E0,-1.813607812E-1,1.011550203E-1,9.281123161E0
3.184533499E0,-2.675520480E-1,7.242459804E-2,9.343372345E0
3.186530946E0,-2.196680009E-1,-1.909375787E-1,9.822212219E0
3.188528394E0,-2.053027898E-1,-2.292448133E-1,1.004726696E1
3.190525842E0,-2.005143911E-1,1.969230920E-1,9.448717117E0
3.192523290E0,-2.962824702E-1,1.873462796E-1,9.372102737E0
3.194520738E0,-3.298012912E-1,-1.143231317E-1,9.453505516E0
3.196518186E0,-3.537433147E-1,-8.080431074E-2,9.400833130E0
3.198515634E0,-2.340332121E-1,-4.189853091E-3,9.372102737E0
3.200513082E0,-2.579752207E-1,-6.165069342E-2,9.702502251E0
3.202510530E0,-2.148796022E-1,-5.686229095E-2,1.006163311E1
3.204507978E0,-1.669955701E-1,-1.478419602E-1,1.004726696E1
3.206505426E0,-4.249707982E-2,-1.813607812E-1,1.014782429E1
3.208502769E0,-9.516951442E-2,-1.191115379E-1,9.745597839E0
3.210500113E0,-2.813187055E-2,6.763619930E-2,9.463082314E0
3.212497405E0,-4.728548229E-2,2.591723204E-1,9.132682800E0
3.214494696E0,-9.038111567E-2,1.777694821E-1,9.295488358E0
3.216491988E0,-2.813187055E-2,-2.053027898E-1,1.002811337E1
3.218489280E0,1.496376097E-2,-2.483984232E-1,1.002811337E1
3.220486571E0,-4.728548229E-2,2.454056777E-2,9.582792282E0
3.222483863E0,1.496376097E-2,-2.483984232E-1,1.001374817E1
3.224481155E0,4.369417951E-2,-3.154360652E-1,1.006163311E1
3.226478499E0,-8.978256024E-3,-8.080431074E-2,9.544485092E0
3.228475894E0,6.284779310E-2,-4.189853091E-3,9.539696693E0
3.230473342E0,-1.376665942E-2,5.081692934E-1,8.917203903E0
3.232470842E0,-1.047463268E-1,1.059434265E-1,8.807070732E0
3.234468394E0,-1.191115379E-1,-1.000177741E0,1.215416527E1
3.236465946E0,-9.516951442E-2,1.634042710E-1,9.807847023E0
3.238463551E0,-6.165069342E-2,8.433575630E-1,8.385691643E0
3.240461207E0,-1.286883354E-1,4.363432527E-1,9.008183479E0
3.242458915E0,-3.770867735E-2,-9.995792061E-2,1.051653099E1
3.244456624E0,-7.601590455E-2,2.543839216E-1,1.008557510E1
3.246454332E0,-1.430535465E-1,4.602852762E-1,9.659406662E0
3.248452040E0,-9.995792061E-2,3.597288132E-1,9.726444244E0
3.250449749E0,-5.207388848E-2,3.166331649E-1,9.793481827E0
3.252447353E0,-4.249707982E-2,3.549404144E-1,9.879673004E0
3.254444853E0,-9.995792061E-2,3.070563674E-1,9.985017776E0
3.256442196E0,-2.334346622E-2,4.124012291E-1,9.597157478E0
3.258439384E0,1.496376097E-2,4.459200799E-1,9.621099472E0
3.260436571E0,-6.165069342E-2,3.597288132E-1,9.439140320E0
3.262433759E0,5.985504249E-4,2.064998895E-1,9.884461403E0
3.264430946E0,5.805939063E-2,2.304419130E-1,9.846154213E0
3.266428134E0,3.890577704E-2,3.262099922E-1,9.645041466E0
3.268425321E0,-9.516951442E-2,1.586158574E-1,9.889249802E0
3.270422509E0,-1.334767491E-1,1.681926697E-1,9.649829865E0
3.272419749E0,-8.559270948E-2,3.501519859E-1,9.343372345E0
3.274417040E0,-6.643909961E-2,1.729810685E-1,9.578003883E0
3.276414384E0,-7.122749835E-2,1.825578809E-1,9.549273491E0
3.278411780E0,-1.143231317E-1,4.369417951E-2,9.592369080E0
3.280409280E0,1.496376097E-2,-8.559270948E-2,9.827000618E0
3.282406884E0,2.932897024E-2,3.890577704E-2,9.534908295E0
3.284404592E0,1.496376097E-2,7.721300423E-2,9.530119896E0
3.286402405E0,1.538274586E-1,-1.430535465E-1,1.002811337E1
3.288400269E0,1.155202314E-1,-6.643909961E-2,9.592369080E0
3.290398186E0,2.831143439E-1,1.017535757E-2,9.429563522E0
3.292396103E0,2.879027426E-1,5.985504249E-4,9.534908295E0
3.294394019E0,2.639607489E-1,1.017535757E-2,9.544485092E0
3.296391311E0,3.501519859E-1,7.721300423E-2,9.496601105E0
3.298388603E0,2.831143439E-1,-5.207388848E-2,9.774328232E0
3.300385894E0,3.884592354E-1,4.848258570E-2,9.769539833E0
3.302383186E0,2.448071241E-1,4.848258570E-2,9.975440979E0
3.304380478E0,3.070563674E-1,1.586158574E-1,9.750386238E0
3.306377769E0,1.107318252E-1,4.124012291E-1,9.089587212E0
3.308375061E0,2.208651006E-1,4.076128304E-1,9.166201591E0
3.310372353E0,2.112883031E-1,3.357867897E-1,9.688137054E0
3.312369644E0,1.107318252E-1,2.639607489E-1,9.850942612E0
3.314366936E0,2.304419130E-1,2.495955229E-1,1.001853657E1
3.316364228E0,1.825578809E-1,3.740940094E-1,9.874884605E0
3.318361519E0,1.921346933E-1,3.836708367E-1,9.755174637E0
3.320358811E0,6.763619930E-2,5.608417392E-1,9.434351921E0
3.322356103E0,1.969230920E-1,6.326677799E-1,9.247604370E0
3.324353394E0,2.064998895E-1,2.591723204E-1,1.027232265E1
3.326350686E0,2.543839216E-1,4.848258570E-2,1.077031612E1
3.328347978E0,1.681926697E-1,2.064998895E-1,9.999382973E0
3.330345269E0,1.921346933E-1,2.112883031E-1,9.640253067E0
3.332342561E0,2.687491477E-1,5.225345492E-1,8.917203903E0
3.334339853E0,2.639607489E-1,4.267664552E-1,9.319430351E0
3.336337144E0,2.879027426E-1,-1.191115379E-1,1.079904652E1
3.338334436E0,3.262099922E-1,-1.382651478E-1,1.081341171E1
3.340331728E0,2.352303118E-1,-6.643909961E-2,1.028668785E1
3.342329071E0,3.357867897E-1,5.386953708E-3,9.683348656E0
3.344326467E0,1.969230920E-1,2.400187254E-1,9.266757965E0
3.346323915E0,2.495955229E-1,2.879027426E-1,9.271546364E0
3.348321415E0,2.208651006E-1,-4.189853091E-3,9.769539833E0
3.350318915E0,2.783259451E-1,-1.526303589E-1,1.008078671E1
3.352316415E0,3.070563674E-1,-8.978256024E-3,9.668983459E0
3.354313915E0,2.687491477E-1,1.442506462E-1,9.233239174E0
3.356311415E0,2.543839216E-1,-1.478419602E-1,1.019570827E1
3.358308915E0,2.639607489E-1,-2.579752207E-1,1.038245583E1
3.360306415E0,2.208651006E-1,5.985504249E-4,9.664195061E0
3.362303707E0,2.352303118E-1,7.242459804E-2,9.659406662E0
3.364300946E0,1.490390599E-1,9.636662155E-2,9.376891136E0
3.366298186E0,1.777694821E-1,-8.559270948E-2,9.697713852E0
3.368295426E0,1.155202314E-1,-3.154360652E-1,9.946710587E0
3.370292665E0,2.495955229E-1,-1.526303589E-1,9.769539833E0
3.372289905E0,2.783259451E-1,3.980360329E-1,8.677783966E0
3.374287144E0,2.448071241E-1,2.304419130E-1,9.520543098E0
3.376284384E0,2.352303118E-1,5.327098817E-2,9.841365814E0
3.378281624E0,2.064998895E-1,-2.292448133E-1,1.016218948E1
3.380278915E0,1.586158574E-1,-4.016273320E-1,1.048780060E1
3.382276259E0,2.735375464E-1,-2.675520480E-1,9.697713852E0
3.384273655E0,2.926911712E-1,-4.878185987E-1,1.025316906E1
3.386271051E0,3.788824081E-1,-1.334767491E-1,9.185355186E0
3.388268446E0,2.543839216E-1,-4.728548229E-2,8.759186745E0
3.390265842E0,4.985924959E-1,-4.112041295E-1,1.013345909E1
3.392263290E0,5.225345492E-1,-6.602011323E-1,1.115338898E1
3.394260790E0,5.943605900E-1,-2.053027898E-1,9.448717117E0
3.396258290E0,5.464765429E-1,-2.771288455E-1,9.218873978E0
3.398255790E0,5.225345492E-1,-5.979518890E-1,9.994594574E0
3.400253290E0,5.177460909E-1,-6.937199235E-1,1.004726696E1
3.402250790E0,4.794389009E-1,-3.250128925E-1,8.840589523E0
3.404248290E0,6.470330358E-1,-1.957259923E-1,9.060855865E0
3.406245790E0,5.847837925E-1,-4.686649740E-1,1.036809063E1
3.408243342E0,5.416881442E-1,-8.517372608E-1,1.094748688E1
3.410240894E0,5.895721912E-1,-6.123170853E-1,9.889249802E0
3.412238446E0,4.938040972E-1,-5.931634903E-1,9.520543098E0
3.414235999E0,4.890156984E-1,-8.517372608E-1,1.018134308E1
3.416233551E0,4.794389009E-1,-5.883750916E-1,9.539696693E0
3.418231103E0,4.698620737E-1,-2.962824702E-1,9.127894402E0
3.420228655E0,5.608417392E-1,-4.542997777E-1,9.850942612E0
3.422226207E0,5.847837925E-1,-2.723404467E-1,9.807847023E0
3.424223759E0,4.890156984E-1,-2.196680009E-1,9.587580681E0
3.426221311E0,4.363432527E-1,-3.345896900E-1,9.860519409E0
3.428218759E0,4.171896577E-1,-2.436100245E-1,9.827000618E0
3.430216103E0,4.698620737E-1,-2.436100245E-1,9.702502251E0
3.432213446E0,3.357867897E-1,-3.393780887E-1,9.870096207E0
3.434210790E0,4.219780564E-1,-1.047463268E-1,9.587580681E0
3.436208134E0,3.788824081E-1,1.011550203E-1,9.261969566E0
3.438205478E0,2.831143439E-1,-4.249707982E-2,9.712079048E0
3.440202821E0,2.017114908E-1,-3.345896900E-1,1.015261269E1
3.442200165E0,7.242459804E-2,-3.920505345E-1,1.003290176E1
3.444197509E0,1.250970364E-1,-2.340332121E-1,9.463082314E0
3.446194853E0,5.386953708E-3,-4.728548229E-2,9.214085579E0
3.448192196E0,1.017535757E-2,4.848258570E-2,9.324218750E0
3.450189540E0,3.411737457E-2,1.975216344E-2,9.530119896E0
3.452186884E0,-8.978256024E-3,-1.478419602E-1,9.932345390E0
3.454184280E0,1.490390599E-1,-1.717839688E-1,1.004247856E1
3.456181728E0,7.721300423E-2,-8.978256024E-3,9.324218750E0
3.458179228E0,-7.601590455E-2,-7.601590455E-2,9.372102737E0
3.460176780E0,3.411737457E-2,-1.334767491E-1,9.592369080E0
3.462174332E0,7.721300423E-2,-1.382651478E-1,9.654618263E0
3.464171884E0,-1.855506375E-2,-1.526303589E-1,9.898826599E0
3.466169436E0,-1.669955701E-1,4.369417951E-2,9.329007149E0
3.468166988E0,-1.622071713E-1,-6.643909961E-2,9.290699959E0
3.470164540E0,-1.047463268E-1,-3.202244639E-1,9.917980194E0
3.472162092E0,-3.292027488E-2,-2.819172442E-1,9.980229378E0
3.474159644E0,-1.238999367E-1,-1.430535465E-1,9.635464668E0
3.476157196E0,-2.334346622E-2,-2.196680009E-1,9.803058624E0
3.478154749E0,-2.244564146E-1,6.763619930E-2,9.271546364E0
3.480152301E0,-1.813607812E-1,-1.286883354E-1,9.740809441E0
3.482149853E0,-1.622071713E-1,-2.334346622E-2,9.688137054E0
3.484147405E0,-1.765723825E-1,3.411737457E-2,9.496601105E0
3.486144957E0,-1.909375787E-1,-2.244564146E-1,1.021486187E1
3.488142509E0,-1.382651478E-1,-2.244564146E-1,1.037766743E1
3.490140061E0,1.017535757E-2,1.394622475E-1,9.482235909E0
3.492137509E0,-1.143231317E-1,1.155202314E-1,9.228450775E0
3.494134957E0,-5.686229095E-2,3.411737457E-2,9.539696693E0
3.496132405E0,-6.643909961E-2,-1.047463268E-1,9.927556992E0
3.498129853E0,5.386953708E-3,-2.005143911E-1,9.913191795E0
3.500127301E0,-8.978256024E-3,-2.148796022E-1,1.008557510E1
3.502124749E0,9.636662155E-2,4.369417951E-2,9.736021042E0
3.504122196E0,1.975216344E-2,1.490390599E-1,9.285911560E0
3.506119644E0,-6.643909961E-2,-2.005143911E-1,1.000895977E1
3.508117092E0,-8.080431074E-2,-9.516951442E-2,9.740809441E0
3.510114540E0,-8.978256024E-3,9.157821536E-2,9.300276756E0
3.512111988E0,9.157821536E-2,-4.728548229E-2,9.922768593E0
3.514109436E0,1.586158574E-1,-2.244564146E-1,1.036809063E1
3.516106884E0,1.490390599E-1,-1.047463268E-1,9.831789017E0
3.518104228E0,1.825578809E-1,6.763619930E-2,9.233239174E0
3.520101571E0,3.890577704E-2,-1.376665942E-2,9.558850288E0
3.522098811E0,-8.559270948E-2,-1.334767491E-1,9.927556992E0
3.524096051E0,1.825578809E-1,-9.516951442E-2,1.001374817E1
3.526093290E0,1.777694821E-1,-2.340332121E-1,1.025795746E1
3.528090530E0,3.890577704E-2,-1.143231317E-1,9.578003883E0
3.530087769E0,1.975216344E-2,5.386953708E-3,9.233239174E0
3.532085009E0,1.250970364E-1,1.250970364E-1,9.362525940E0
3.534082249E0,2.448071241E-1,5.985504249E-4,9.965864182E0
3.536079540E0,9.636662155E-2,-1.717839688E-1,1.035372543E1
3.538076884E0,1.496376097E-2,1.496376097E-2,9.702502251E0
3.540074280E0,3.890577704E-2,5.081692934E-1,8.749609947E0
3.542071728E0,3.411737457E-2,2.687491477E-1,9.338583946E0
3.544069228E0,1.729810685E-1,-2.196680009E-1,1.064581776E1
3.546066780E0,5.805939063E-2,-1.909375787E-1,1.047343540E1
3.548064384E0,3.411737457E-2,5.985504249E-4,9.745597839E0
3.550062040E0,-1.855506375E-2,1.203086376E-1,9.496601105E0
3.552059749E0,5.985504249E-4,3.262099922E-1,9.367314339E0
3.554057509E0,1.107318252E-1,2.208651006E-1,9.803058624E0
3.556055321E0,5.386953708E-3,6.284779310E-2,1.021007347E1
3.558053134E0,-1.191115379E-1,1.203086376E-1,9.822212219E0
3.560050946E0,-4.249707982E-2,2.064998895E-1,9.257181168E0
3.562048759E0,-8.978256024E-3,1.969230920E-1,9.333795547E0
3.564046571E0,-8.080431074E-2,7.721300423E-2,9.817423820E0
3.566044019E0,-1.813607812E-1,-4.189853091E-3,9.970652580E0
3.568041467E0,-2.334346622E-2,6.284779310E-2,9.683348656E0
3.570038915E0,-6.165069342E-2,2.017114908E-1,9.415198326E0
3.572036363E0,-6.643909961E-2,1.298854351E-1,9.539696693E0
3.574033811E0,8.678980917E-2,-1.286883354E-1,1.007120991E1
3.576031155E0,-6.165069342E-2,-1.478419602E-1,9.999382973E0
3.578028394E0,-7.122749835E-2,-2.292448133E-1,9.855731010E0
3.580025582E0,7.242459804E-2,-3.202244639E-1,9.922768593E0
3.582022769E0,1.346738487E-1,-1.143231317E-1,9.487024307E0
3.584019957E0,1.107318252E-1,5.805939063E-2,9.242815971E0
3.586017144E0,2.400187254E-1,1.011550203E-1,9.477447510E0
3.588014332E0,7.242459804E-2,1.203086376E-1,9.472659111E0
3.590011519E0,7.242459804E-2,1.155202314E-1,9.515754700E0
3.592008707E0,6.284779310E-2,7.721300423E-2,9.692925453E0
3.594005946E0,5.327098817E-2,-1.765723825E-1,1.026274586E1
3.596003238E0,1.538274586E-1,-2.483984232E-1,1.032499504E1
3.598000582E0,5.985504249E-4,-5.686229095E-2,9.721655846E0
3.599997978E0,1.496376097E-2,8.678980917E-2,9.357737541E0
3.601995426E0,4.369417951E-2,1.975216344E-2,9.683348656E0
3.603992926E0,-6.165069342E-2,1.442506462E-1,9.386467934E0
3.605990478E0,8.678980917E-2,2.495955229E-1,9.089587212E0
3.607988082E0,1.681926697E-1,-3.770867735E-2,9.970652580E0
3.609985738E0,1.203086376E-1,-2.005143911E-1,1.017176628E1
3.611983446E0,1.011550203E-1,-1.574187577E-1,9.846154213E0
3.613981207E0,-1.855506375E-2,-2.388216257E-1,9.755174637E0
3.615979019E0,3.890577704E-2,-3.292027488E-2,9.654618263E0
3.617976884E0,2.352303118E-1,-1.238999367E-1,9.980229378E0
3.619974749E0,2.017114908E-1,-5.686229095E-2,9.937133789E0
3.621972613E0,4.369417951E-2,1.394622475E-1,9.616311073E0
3.623970478E0,1.490390599E-1,1.873462796E-1,9.515754700E0
3.625968342E0,1.011550203E-1,3.411737457E-2,1.007120991E1
3.627966207E0,1.496376097E-2,-1.286883354E-1,1.029147625E1
3.629964071E0,9.157821536E-2,-4.728548229E-2,9.692925453E0
3.631961519E0,1.011550203E-1,1.634042710E-1,9.089587212E0
3.633958915E0,1.011550203E-1,3.411737457E-2,9.769539833E0
3.635956311E0,1.729810685E-1,5.985504249E-4,9.961075783E0
3.637953707E0,1.394622475E-1,1.729810685E-1,9.640253067E0
3.639951103E0,-8.559270948E-2,8.678980917E-2,9.654618263E0
3.641948499E0,5.327098817E-2,-8.080431074E-2,9.894038200E0
3.643945894E0,-9.516951442E-2,1.011550203E-1,9.300276756E0
3.645943342E0,-1.622071713E-1,5.327098817E-2,9.305065155E0
3.647940842E0,-5.686229095E-2,-1.478419602E-1,9.850942612E0
3.649938342E0,5.327098817E-2,-1.574187577E-1,9.956287384E0
3.651935842E0,8.200141042E-2,-2.388216257E-1,9.850942612E0
3.653933342E0,6.763619930E-2,-2.100912035E-1,9.889249802E0
3.655930842E0,-9.516951442E-2,-8.978256024E-3,9.554061890E0
3.657928342E0,-1.191115379E-1,-4.249707982E-2,9.606734276E0
3.659925894E0,1.975216344E-2,6.284779310E-2,9.755174637E0
3.661923499E0,1.496376097E-2,2.112883031E-1,9.894038200E0
3.663921155E0,1.921346933E-1,1.729810685E-1,9.894038200E0
3.665918863E0,1.250970364E-1,1.011550203E-1,9.750386238E0
3.667916624E0,5.327098817E-2,1.059434265E-1,9.587580681E0
3.669914436E0,7.721300423E-2,1.059434265E-1,9.654618263E0
3.671912249E0,1.059434265E-1,-6.165069342E-2,9.989806175E0
3.673910061E0,2.304419130E-1,-1.430535465E-1,9.913191795E0
3.675907769E0,1.017535757E-2,8.200141042E-2,9.501389503E0
3.677905426E0,-6.165069342E-2,1.681926697E-1,9.319430351E0
3.679903082E0,2.454056777E-2,1.059434265E-1,9.898826599E0
3.681900738E0,9.636662155E-2,1.490390599E-1,9.750386238E0
3.683898394E0,1.777694821E-1,1.873462796E-1,9.573215485E0
3.685896051E0,1.586158574E-1,-2.334346622E-2,1.020528507E1
3.687893707E0,1.155202314E-1,-1.861491799E-1,9.970652580E0
3.689891363E0,7.721300423E-2,-3.770867735E-2,9.343372345E0
3.691888967E0,8.200141042E-2,-1.622071713E-1,9.606734276E0
3.693886415E0,9.636662155E-2,-2.292448133E-1,9.659406662E0
3.695883863E0,2.454056777E-2,-1.334767491E-1,9.309853554E0
3.697881311E0,2.112883031E-1,-1.574187577E-1,9.477447510E0
3.699878759E0,1.969230920E-1,-3.298012912E-1,9.922768593E0
3.701876155E0,2.256535143E-1,-3.345896900E-1,1.015261269E1
3.703873551E0,1.634042710E-1,-1.622071713E-1,9.621099472E0
3.705870790E0,3.118447661E-1,-1.143231317E-1,9.482235909E0
3.707868030E0,2.256535143E-1,-8.080431074E-2,9.889249802E0
3.709865269E0,3.357867897E-1,-1.478419602E-1,1.037766743E1
3.711862509E0,2.926911712E-1,4.848258570E-2,9.889249802E0
3.713859749E0,1.634042710E-1,2.112883031E-1,9.750386238E0
3.715856988E0,1.873462796E-1,4.746504724E-1,9.621099472E0
3.717854228E0,2.352303118E-1,5.847837925E-1,9.477447510E0
3.719851519E0,2.017114908E-1,3.262099922E-1,1.014303589E1
3.721848863E0,2.735375464E-1,3.549404144E-1,1.003290176E1
3.723846259E0,8.200141042E-2,6.039373875E-1,9.525331497E0
3.725843707E0,2.400187254E-1,7.523778677E-1,9.333795547E0
3.727841155E0,2.256535143E-1,7.523778677E-1,9.314641953E0
3.729838655E0,2.639607489E-1,5.416881442E-1,9.664195061E0
3.731836207E0,9.157821536E-2,4.411316514E-1,9.712079048E0
3.733833811E0,1.346738487E-1,3.932476342E-1,9.673771858E0
3.735831415E0,1.825578809E-1,3.740940094E-1,9.645041466E0
3.737829019E0,1.681926697E-1,2.879027426E-1,9.989806175E0
3.739826624E0,1.873462796E-1,1.490390599E-1,1.000895977E1
3.741824228E0,1.011550203E-1,1.681926697E-1,9.707290649E0
3.743821832E0,-7.122749835E-2,1.586158574E-1,9.625887871E0
3.745819436E0,5.985504249E-4,1.155202314E-1,9.678560257E0
3.747817040E0,1.203086376E-1,1.634042710E-1,9.721655846E0
3.749814644E0,2.017114908E-1,1.634042710E-1,9.913191795E0
3.751812249E0,2.639607489E-1,1.921346933E-1,9.836577415E0
3.753809801E0,1.969230920E-1,3.166331649E-1,9.601945877E0
3.755807092E0,7.721300423E-2,4.459200799E-1,9.343372345E0
3.757804384E0,-4.249707982E-2,4.171896577E-1,9.463082314E0
3.759801676E0,1.011550203E-1,3.309983909E-1,9.803058624E0
3.761798967E0,1.873462796E-1,2.831143439E-1,1.000417137E1
3.763796259E0,2.352303118E-1,3.357867897E-1,9.850942612E0
3.765793551E0,2.591723204E-1,4.124012291E-1,9.597157478E0
3.767790842E0,1.825578809E-1,3.693056107E-1,9.645041466E0
3.769788134E0,7.242459804E-2,4.794389009E-1,9.597157478E0
3.771785426E0,1.011550203E-1,4.459200799E-1,9.937133789E0
3.773782769E0,2.160767019E-1,4.363432527E-1,9.961075783E0
3.775780165E0,1.825578809E-1,5.895721912E-1,9.515754700E0
3.777777613E0,8.200141042E-2,6.278793812E-1,9.242815971E0
3.779775113E0,3.890577704E-2,3.980360329E-1,9.740809441E0
3.781772665E0,5.805939063E-2,2.017114908E-1,1.015261269E1
3.783770269E0,1.250970364E-1,3.309983909E-1,9.764751434E0
3.785767926E0,1.203086376E-1,4.363432527E-1,9.367314339E0
3.787765582E0,2.974795699E-1,2.448071241E-1,9.917980194E0
3.789763238E0,3.501519859E-1,2.160767019E-1,1.005205631E1
3.791760894E0,3.118447661E-1,3.070563674E-1,9.855731010E0
3.793758551E0,2.495955229E-1,3.693056107E-1,9.563638687E0
3.795756207E0,1.250970364E-1,2.926911712E-1,9.597157478E0
3.797753863E0,1.777694821E-1,1.634042710E-1,9.846154213E0
3.799751519E0,8.200141042E-2,1.490390599E-1,9.779116631E0
3.801749176E0,2.017114908E-1,1.681926697E-1,9.736021042E0
3.803746832E0,3.453635871E-1,2.112883031E-1,9.850942612E0
3.805744488E0,3.549404144E-1,3.932476342E-1,9.463082314E0
3.807742144E0,3.740940094E-1,4.794389009E-1,9.396044731E0
3.809739801E0,3.788824081E-1,2.879027426E-1,9.803058624E0
3.811737457E0,2.448071241E-1,2.448071241E-1,9.831789017E0
3.813735113E0,3.405751884E-1,3.214215636E-1,9.668983459E0
3.815732769E0,4.171896577E-1,4.315548539E-1,9.558850288E0
3.817730426E0,2.735375464E-1,6.183025837E-1,9.228450775E0
3.819728082E0,3.262099922E-1,4.602852762E-1,9.683348656E0
3.821725738E0,4.028244317E-1,2.783259451E-1,1.021965027E1
3.823723290E0,1.921346933E-1,1.921346933E-1,1.014782429E1
3.825720686E0,1.250970364E-1,3.740940094E-1,9.376891136E0
3.827717874E0,2.591723204E-1,4.124012291E-1,9.357737541E0
3.829715061E0,2.879027426E-1,2.926911712E-1,9.970652580E0
3.831712249E0,3.501519859E-1,2.783259451E-1,9.989806175E0
3.833709436E0,1.442506462E-1,4.028244317E-1,9.510966301E0
3.835706624E0,2.256535143E-1,2.687491477E-1,9.702502251E0
3.837703811E0,2.256535143E-1,8.678980917E-2,1.018613148E1
3.839700999E0,9.636662155E-2,2.208651006E-1,9.812635422E0
3.841698186E0,1.825578809E-1,3.070563674E-1,9.487024307E0
3.843695374E0,2.591723204E-1,3.501519859E-1,9.774328232E0
3.845692561E0,1.634042710E-1,4.076128304E-1,9.539696693E0
3.847689749E0,7.721300423E-2,1.969230920E-1,9.803058624E0
3.849686988E0,1.298854351E-1,4.369417951E-2,1.006642151E1
3.851684280E0,1.203086376E-1,1.969230920E-1,9.721655846E0
3.853681624E0,4.848258570E-2,4.363432527E-1,9.281123161E0
3.855679019E0,1.298854351E-1,4.411316514E-1,9.295488358E0
3.857676467E0,2.064998895E-1,3.070563674E-1,9.870096207E0
3.859673967E0,1.107318252E-1,2.974795699E-1,9.817423820E0
3.861671519E0,1.921346933E-1,2.256535143E-1,9.961075783E0
3.863669124E0,2.932897024E-2,2.400187254E-1,9.903614998E0
3.865666780E0,-9.038111567E-2,3.980360329E-1,9.415198326E0
3.867664488E0,-2.813187055E-2,2.017114908E-1,9.745597839E0
3.869662196E0,4.369417951E-2,3.890577704E-2,1.007120991E1
3.871659905E0,9.157821536E-2,1.346738487E-1,9.812635422E0
3.873657613E0,2.112883031E-1,3.166331649E-1,9.491812706E0
3.875655321E0,8.200141042E-2,3.453635871E-1,9.496601105E0
3.877652926E0,1.155202314E-1,1.442506462E-1,9.927556992E0
3.879650321E0,1.298854351E-1,2.879027426E-1,9.664195061E0
3.881647717E0,1.634042710E-1,5.033808947E-1,9.233239174E0
3.883645061E0,1.634042710E-1,4.219780564E-1,9.276334763E0
3.885642301E0,1.777694821E-1,2.064998895E-1,9.769539833E0
3.887639488E0,1.538274586E-1,6.284779310E-2,1.012867069E1
3.889636676E0,8.678980917E-2,5.805939063E-2,1.012388229E1
3.891633863E0,-4.189853091E-3,3.411737457E-2,1.002811337E1
3.893631051E0,1.921346933E-1,1.681926697E-1,9.716867447E0
3.895628238E0,3.262099922E-1,3.357867897E-1,9.443928719E0
3.897625426E0,2.400187254E-1,2.591723204E-1,9.961075783E0
3.899622613E0,2.304419130E-1,2.783259451E-1,9.989806175E0
3.901619853E0,2.256535143E-1,4.363432527E-1,9.510966301E0
3.903617144E0,2.208651006E-1,5.129576921E-1,9.419986725E0
3.905614488E0,1.634042710E-1,4.602852762E-1,9.736021042E0
3.907611884E0,1.969230920E-1,4.124012291E-1,9.980229378E0
3.909609332E0,1.777694821E-1,5.225345492E-1,9.870096207E0
3.911606832E0,2.112883031E-1,7.044938207E-1,9.247604370E0
3.913604384E0,1.921346933E-1,6.039373875E-1,9.525331497E0
3.915601936E0,1.394622475E-1,3.262099922E-1,1.020049667E1
3.917599488E0,1.394622475E-1,2.831143439E-1,1.008557510E1
3.919597040E0,2.735375464E-1,3.166331649E-1,9.678560257E0
3.921594592E0,3.645172119E-1,4.315548539E-1,9.793481827E0
3.923592144E0,4.507084787E-1,5.799953341E-1,9.563638687E0
3.925589696E0,4.411316514E-1,6.230909824E-1,9.400833130E0
3.927587249E0,3.980360329E-1,7.044938207E-1,9.329007149E0
3.929584749E0,4.124012291E-1,4.315548539E-1,9.985017776E0
3.931582144E0,3.166331649E-1,3.501519859E-1,9.989806175E0
3.933579540E0,3.405751884E-1,4.698620737E-1,9.554061890E0
3.935576936E0,3.693056107E-1,4.650736749E-1,9.554061890E0
3.937574332E0,3.836708367E-1,4.650736749E-1,9.827000618E0
3.939571728E0,5.033808947E-1,6.566098332E-1,9.367314339E0
3.941569124E0,4.076128304E-1,4.650736749E-1,9.692925453E0
3.943566519E0,1.634042710E-1,1.155202314E-1,1.048301220E1
3.945563915E0,2.112883031E-1,5.327098817E-2,1.028668785E1
3.947561311E0,3.740940094E-1,4.459200799E-1,9.319430351E0
3.949558759E0,2.974795699E-1,7.811083198E-1,9.285911560E0
3.951556259E0,2.400187254E-1,7.332242727E-1,9.649829865E0
3.953553811E0,2.735375464E-1,6.422445774E-1,9.712079048E0
3.955551415E0,1.490390599E-1,5.704185367E-1,9.788693428E0
3.957549019E0,2.160767019E-1,2.160767019E-1,1.061708736E1
3.959546624E0,1.538274586E-1,4.746504724E-1,1.002811337E1
3.961544228E0,2.017114908E-1,8.194155097E-1,8.802282333E0
3.963541832E0,1.969230920E-1,6.661866307E-1,9.295488358E0
3.965539436E0,1.011550203E-1,4.219780564E-1,1.018134308E1
3.967536832E0,2.400187254E-1,4.746504724E-1,9.803058624E0
3.969534124E0,3.411737457E-2,3.501519859E-1,9.716867447E0
3.971531415E0,7.242459804E-2,3.214215636E-1,9.750386238E0
3.973528707E0,1.059434265E-1,5.608417392E-1,9.214085579E0
3.975525999E0,7.721300423E-2,4.171896577E-1,9.597157478E0
3.977523290E0,8.678980917E-2,3.411737457E-2,1.036809063E1
3.979520582E0,1.394622475E-1,1.921346933E-1,9.606734276E0
3.981517926E0,1.298854351E-1,4.028244317E-1,8.874108315E0
3.983515321E0,1.155202314E-1,8.200141042E-2,1.014782429E1
3.985512769E0,1.490390599E-1,3.890577704E-2,1.037287903E1
3.987510269E0,1.538274586E-1,1.586158574E-1,9.721655846E0
3.989507769E0,2.017114908E-1,3.118447661E-1,9.645041466E0
3.991505269E0,1.011550203E-1,3.549404144E-1,9.783905029E0
3.993502821E0,1.394622475E-1,4.315548539E-1,9.601945877E0
3.995500426E0,1.394622475E-1,3.836708367E-1,9.779116631E0
3.997498082E0,1.155202314E-1,5.416881442E-1,9.453505516E0
3.999495738E0,2.064998895E-1,4.698620737E-1,9.645041466E0
4.001493394E0,2.352303118E-1,3.932476342E-1,9.908403397E0
4.003491051E0,1.059434265E-1,6.183025837E-1,9.429563522E0
4.005488707E0,2.112883031E-1,4.076128304E-1,9.917980194E0
4.007486155E0,7.721300423E-2,2.160767019E-1,9.989806175E0
4.009483446E0,-7.601590455E-2,-1.813607812E-1,1.021965027E1
4.011480738E0,2.017114908E-1,3.501519859E-1,9.103952408E0
4.013478030E0,9.636662155E-2,6.374561787E-1,8.749609947E0
4.015475217E0,1.825578809E-1,3.836708367E-1,9.822212219E0
4.017472405E0,1.969230920E-1,2.352303118E-1,1.033457184E1
4.019469592E0,1.969230920E-1,2.304419130E-1,1.011909389E1
4.021466780E0,2.400187254E-1,2.543839216E-1,9.870096207E0
4.023463967E0,2.112883031E-1,2.352303118E-1,1.016218948E1
4.025461155E0,1.873462796E-1,4.315548539E-1,9.415198326E0
4.027458394E0,2.160767019E-1,5.273229480E-1,9.491812706E0
4.029455686E0,1.442506462E-1,4.794389009E-1,9.688137054E0
4.031453030E0,2.064998895E-1,6.230909824E-1,9.501389503E0
4.033450426E0,2.112883031E-1,7.380126715E-1,9.329007149E0
4.035447874E0,5.386953708E-3,3.022679687E-1,1.031541824E1
4.037445374E0,6.284779310E-2,3.262099922E-1,1.011909389E1
4.039442926E0,6.284779310E-2,6.230909824E-1,9.487024307E0
4.041440530E0,-4.728548229E-2,6.326677799E-1,9.525331497E0
4.043438186E0,-6.643909961E-2,6.087257862E-1,9.750386238E0
4.045435894E0,-6.643909961E-2,3.166331649E-1,1.033457184E1
4.047433603E0,1.346738487E-1,2.639607489E-1,1.031062984E1
4.049431311E0,1.059434265E-1,3.549404144E-1,9.941922188E0
4.051429019E0,-1.855506375E-2,3.357867897E-1,9.769539833E0
4.053426728E0,5.805939063E-2,2.783259451E-1,9.827000618E0
4.055424436E0,5.386953708E-3,1.538274586E-1,9.803058624E0
4.057422144E0,1.346738487E-1,6.763619930E-2,9.965864182E0
4.059419853E0,-2.334346622E-2,2.879027426E-1,9.688137054E0
4.061417561E0,2.932897024E-2,3.980360329E-1,9.396044731E0
4.063415217E0,1.017535757E-2,1.011550203E-1,1.008557510E1
4.065412665E0,1.298854351E-1,2.208651006E-1,9.855731010E0
4.067410113E0,-1.855506375E-2,3.549404144E-1,9.372102737E0
4.069407561E0,-4.728548229E-2,1.873462796E-1,9.745597839E0
4.071405009E0,1.975216344E-2,2.543839216E-1,9.563638687E0
4.073402457E0,5.386953708E-3,1.777694821E-1,9.712079048E0
4.075399905E0,-4.189853091E-3,-4.249707982E-2,9.927556992E0
4.077397353E0,3.411737457E-2,7.242459804E-2,9.525331497E0
4.079394801E0,-4.189853091E-3,2.304419130E-1,9.084798813E0
4.081392301E0,8.200141042E-2,4.848258570E-2,9.127894402E0
4.083389853E0,2.064998895E-1,-3.681085110E-1,1.000417137E1
4.085387457E0,2.208651006E-1,-2.244564146E-1,9.769539833E0
4.087385061E0,2.448071241E-1,-8.559270948E-2,9.329007149E0
4.089382665E0,2.160767019E-1,-2.053027898E-1,9.338583946E0
4.091380269E0,2.879027426E-1,-3.058592677E-1,9.578003883E0
4.093377874E0,2.400187254E-1,-2.100912035E-1,9.563638687E0
4.095375478E0,3.836708367E-1,-3.010708690E-1,9.865307808E0
