"Time (s)","Acceleration x (m/s^2)","Acceleration y (m/s^2)","Acceleration z (m/s^2)"
1.809251500E-2,1.496376097E-2,3.884592354E-1,9.860519409E0
2.009006700E-2,4.848258570E-2,3.932476342E-1,9.846154213E0
2.208761900E-2,5.327098817E-2,3.980360329E-1,9.798270226E0
2.408517200E-2,1.011550203E-1,3.645172119E-1,9.793481827E0
2.608272400E-2,1.346738487E-1,3.740940094E-1,9.822212219E0
2.808027600E-2,1.777694821E-1,3.788824081E-1,9.860519409E0
3.008532800E-2,1.969230920E-1,3.932476342E-1,9.860519409E0
3.207694200E-2,2.112883031E-1,3.740940094E-1,9.865307808E0
3.406876500E-2,2.017114908E-1,3.932476342E-1,9.850942612E0
3.606105700E-2,2.064998895E-1,4.028244317E-1,9.831789017E0
3.805397400E-2,2.160767019E-1,4.124012291E-1,9.884461403E0
4.004772400E-2,2.160767019E-1,4.076128304E-1,9.961075783E0
4.204241100E-2,3.884592354E-1,2.879027426E-1,1.041597462E1
4.403814000E-2,2.017114908E-1,4.746504724E-1,9.348160744E0
4.603496300E-2,3.890577704E-2,3.166331649E-1,9.889249802E0
4.803288000E-2,7.721300423E-2,4.746504724E-1,9.477447510E0
5.003183800E-2,-8.559270948E-2,4.746504724E-1,9.534908295E0
5.203173400E-2,-3.292027488E-2,5.225345492E-1,9.827000618E0
5.403246300E-2,-5.686229095E-2,6.135141850E-1,9.985017776E0
5.603386900E-2,-1.574187577E-1,7.858967185E-1,9.999382973E0
5.803579700E-2,-2.148796022E-1,9.008184075E-1,9.975440979E0
6.003803600E-2,-2.531868219E-1,9.439139962E-1,1.000895977E1
6.204038000E-2,-2.579752207E-1,9.247604012E-1,1.001374817E1
6.404142200E-2,-1.957259923E-1,9.056068063E-1,1.005684471E1
6.603913000E-2,-1.669955701E-1,8.529343605E-1,1.008078671E1
6.803683800E-2,-1.334767491E-1,7.858967185E-1,1.009515190E1
7.003454700E-2,-9.516951442E-2,7.811083198E-1,1.006642151E1
7.203225500E-2,-6.165069342E-2,7.236474752E-1,1.008078671E1
7.402996300E-2,-3.292027488E-2,6.997054219E-1,1.009036350E1
7.602767200E-2,-1.855506375E-2,6.518214345E-1,1.014303589E1
7.802538000E-2,-2.334346622E-2,5.895721912E-1,1.014782429E1
8.002308800E-2,-7.122749835E-2,6.278793812E-1,1.010951710E1
8.202079700E-2,-1.047463268E-1,6.135141850E-1,1.008557510E1
8.401850500E-2,-1.526303589E-1,6.518214345E-1,1.006642151E1
8.601621300E-2,-1.765723825E-1,6.326677799E-1,1.005205631E1
8.801397400E-2,-2.196680009E-1,6.613982320E-1,1.005684471E1
9.001178600E-2,-2.100912035E-1,6.661866307E-1,1.005684471E1
9.200965100E-2,-2.005143911E-1,6.853402257E-1,1.001853657E1
9.400756700E-2,-1.669955701E-1,7.044938207E-1,9.989806175E0
9.600553600E-2,-1.430535465E-1,7.092822790E-1,9.970652580E0
9.800350500E-2,-1.478419602E-1,7.188590765E-1,9.932345390E0
1.000014740E-1,-1.143231317E-1,7.140706778E-1,9.874884605E0
1.019994420E-1,-1.191115379E-1,6.709750295E-1,9.860519409E0
1.039974110E-1,-7.122749835E-2,6.470330358E-1,9.870096207E0
1.059953280E-1,-1.376665942E-2,6.518214345E-1,9.827000618E0
1.079930360E-1,-1.376665942E-2,6.470330358E-1,9.759963036E0
1.099907440E-1,4.369417951E-2,6.518214345E-1,9.721655846E0
1.119884530E-1,9.636662155E-2,6.661866307E-1,9.716867447E0
1.139861610E-1,1.107318252E-1,6.326677799E-1,9.692925453E0
1.159838690E-1,1.490390599E-1,6.518214345E-1,9.697713852E0
1.179815780E-1,1.681926697E-1,6.278793812E-1,9.688137054E0
1.199792860E-1,1.825578809E-1,6.661866307E-1,9.712079048E0
1.219769940E-1,1.346738487E-1,6.853402257E-1,9.726444244E0
1.239747030E-1,8.200141042E-2,7.715315223E-1,9.683348656E0
1.259724110E-1,3.890577704E-2,7.906851172E-1,9.683348656E0
1.279701190E-1,-4.189853091E-3,8.529343605E-1,9.736021042E0
1.299678280E-1,-4.728548229E-2,8.720879555E-1,9.745597839E0
1.319655360E-1,-9.995792061E-2,8.529343605E-1,9.783905029E0
1.339632970E-1,-1.478419602E-1,8.433575630E-1,9.779116631E0
1.359610570E-1,-1.574187577E-1,8.194155097E-1,9.769539833E0
1.379588170E-1,-2.148796022E-1,8.481459618E-1,9.755174637E0
1.399565780E-1,-2.579752207E-1,8.385691643E-1,9.774328232E0
1.419543380E-1,-2.579752207E-1,8.625111580E-1,9.822212219E0
1.439521510E-1,-2.579752207E-1,8.577227592E-1,9.865307808E0
1.459500150E-1,-2.675520480E-1,8.481459618E-1,9.855731010E0
1.479478800E-1,-2.388216257E-1,8.098387122E-1,9.932345390E0
1.499457440E-1,-1.526303589E-1,8.289923668E-1,9.898826599E0
1.519436090E-1,-7.601590455E-2,8.289923668E-1,9.908403397E0
1.539414740E-1,-3.292027488E-2,8.098387122E-1,9.941922188E0
1.559393380E-1,-8.978256024E-3,8.050503135E-1,9.879673004E0
1.579370470E-1,-1.376665942E-2,7.858967185E-1,9.865307808E0
1.599345470E-1,-5.686229095E-2,7.619546652E-1,9.836577415E0
1.619320470E-1,-8.080431074E-2,7.858967185E-1,9.783905029E0
1.639295470E-1,-6.165069342E-2,8.912416101E-1,9.673771858E0
1.659270470E-1,-7.601590455E-2,9.343371987E-1,9.716867447E0
1.679245470E-1,-9.038111567E-2,9.726444483E-1,9.755174637E0
1.699220990E-1,-8.559270948E-2,1.054047346E0,9.702502251E0
1.719197030E-1,-7.601590455E-2,1.082777739E0,9.736021042E0
1.739173590E-1,-1.095347255E-1,1.077989340E0,9.736021042E0
1.759150670E-1,-4.249707982E-2,1.034893632E0,9.783905029E0
1.779128280E-1,-8.559270948E-2,9.103952050E-1,9.922768593E0
1.799106400E-1,-1.376665942E-2,8.529343605E-1,9.946710587E0
1.819084530E-1,-3.292027488E-2,7.954735160E-1,1.002811337E1
1.839062650E-1,-7.122749835E-2,8.098387122E-1,9.884461403E0
1.859040780E-1,-9.995792061E-2,8.577227592E-1,9.817423820E0
1.879019420E-1,-1.382651478E-1,8.098387122E-1,9.870096207E0
1.898998590E-1,-1.286883354E-1,7.332242727E-1,9.884461403E0
1.918977760E-1,-1.143231317E-1,7.284358740E-1,9.822212219E0
1.938956920E-1,-1.430535465E-1,7.858967185E-1,9.874884605E0
1.958936090E-1,-1.622071713E-1,7.906851172E-1,9.884461403E0
1.978915260E-1,-2.196680009E-1,7.380126715E-1,9.755174637E0
1.998894420E-1,-1.861491799E-1,8.146271110E-1,9.759963036E0
2.018873590E-1,-1.334767491E-1,8.337807655E-1,9.783905029E0
2.038852760E-1,-8.559270948E-2,8.864531517E-1,9.740809441E0
2.058831400E-1,-7.601590455E-2,8.529343605E-1,9.707290649E0
2.078808490E-1,-1.376665942E-2,7.906851172E-1,9.712079048E0
2.098785570E-1,-4.189853091E-3,7.380126715E-1,9.870096207E0
2.118762650E-1,2.932897024E-2,8.242039084E-1,9.721655846E0
2.138739220E-1,2.932897024E-2,8.002619147E-1,9.697713852E0
2.158715780E-1,-8.978256024E-3,7.428010702E-1,9.712079048E0
2.178692340E-1,-6.643909961E-2,7.236474752E-1,9.779116631E0
2.198668900E-1,-1.047463268E-1,7.188590765E-1,9.750386238E0
2.218645470E-1,-1.382651478E-1,6.997054219E-1,9.788693428E0
2.238622030E-1,-1.574187577E-1,6.901286244E-1,9.898826599E0
2.258598590E-1,-2.579752207E-1,6.470330358E-1,9.831789017E0
2.278575670E-1,-2.914940715E-1,6.613982320E-1,9.846154213E0
2.298553280E-1,-3.585317135E-1,6.518214345E-1,9.903614998E0
2.318531400E-1,-4.112041295E-1,6.326677799E-1,9.793481827E0
2.338510050E-1,-4.542997777E-1,6.518214345E-1,9.922768593E0
2.358489220E-1,-4.447229803E-1,6.661866307E-1,9.917980194E0
2.378468900E-1,-4.351461530E-1,6.326677799E-1,1.008557510E1
2.398449110E-1,-4.399345517E-1,6.230909824E-1,1.010472870E1
2.418429840E-1,-4.064157307E-1,6.518214345E-1,9.994594574E0
2.438411090E-1,-3.633201122E-1,6.374561787E-1,9.927556992E0
2.458392340E-1,-3.872621357E-1,6.566098332E-1,9.965864182E0
2.478373590E-1,-3.824737072E-1,6.853402257E-1,9.975440979E0
2.498354840E-1,-3.776853085E-1,6.135141850E-1,1.007599831E1
2.518336090E-1,-4.351461530E-1,5.081692934E-1,1.003290176E1
2.538315780E-1,-4.064157307E-1,5.081692934E-1,1.002811337E1
2.558294420E-1,-3.489548862E-1,5.704185367E-1,1.008557510E1
2.578271510E-1,-3.250128925E-1,5.704185367E-1,9.932345390E0
2.598248590E-1,-2.819172442E-1,5.225345492E-1,9.783905029E0
2.618225670E-1,-2.388216257E-1,3.118447661E-1,9.625887871E0
2.638202760E-1,-1.238999367E-1,-7.122749835E-2,1.026274586E1
2.658179840E-1,-4.728548229E-2,1.107318252E-1,1.062187576E1
2.678156920E-1,4.369417951E-2,3.022679687E-1,1.036809063E1
2.698134010E-1,1.107318252E-1,3.788824081E-1,9.989806175E0
2.718111090E-1,8.678980917E-2,3.932476342E-1,9.798270226E0
2.738088170E-1,7.242459804E-2,4.028244317E-1,9.750386238E0
2.758065260E-1,-1.376665942E-2,3.645172119E-1,9.721655846E0
2.778042340E-1,-9.995792061E-2,3.357867897E-1,9.716867447E0
2.798019420E-1,-1.047463268E-1,4.028244317E-1,9.678560257E0
2.817996510E-1,-1.765723825E-1,3.645172119E-1,9.611522675E0
2.837973590E-1,-2.005143911E-1,3.357867897E-1,9.491812706E0
2.857950670E-1,-2.244564146E-1,2.735375464E-1,9.463082314E0
2.877927760E-1,-2.005143911E-1,2.687491477E-1,9.549273491E0
2.897904840E-1,-1.861491799E-1,1.586158574E-1,9.578003883E0
2.917881920E-1,-2.100912035E-1,1.538274586E-1,9.726444244E0
2.937859010E-1,-1.957259923E-1,2.304419130E-1,9.783905029E0
2.957836090E-1,-1.622071713E-1,2.208651006E-1,9.697713852E0
2.977813170E-1,-1.574187577E-1,1.777694821E-1,9.678560257E0
2.997790260E-1,-1.430535465E-1,1.681926697E-1,9.745597839E0
3.017767340E-1,-9.038111567E-2,1.681926697E-1,9.688137054E0
3.037744420E-1,-1.191115379E-1,1.250970364E-1,9.659406662E0
3.057721510E-1,-8.559270948E-2,1.107318252E-1,9.654618263E0
3.077698590E-1,-2.813187055E-2,1.394622475E-1,9.779116631E0
3.097675670E-1,2.932897024E-2,2.112883031E-1,9.779116631E0
3.117652760E-1,-4.189853091E-3,2.448071241E-1,9.721655846E0
3.137629840E-1,-6.165069342E-2,1.921346933E-1,9.759963036E0
3.157606920E-1,-5.686229095E-2,1.586158574E-1,9.779116631E0
3.177584010E-1,-8.559270948E-2,1.442506462E-1,9.788693428E0
3.197561090E-1,-7.122749835E-2,1.681926697E-1,9.841365814E0
3.217538170E-1,-5.686229095E-2,1.729810685E-1,9.803058624E0
3.237515260E-1,2.208651006E-1,2.400187254E-1,8.854954720E0
3.257492340E-1,2.448071241E-1,3.884592354E-1,8.989029884E0
3.277469420E-1,1.538274586E-1,2.687491477E-1,8.984241486E0
3.297447030E-1,2.112883031E-1,1.203086376E-1,9.161413193E0
3.317425150E-1,2.017114908E-1,3.890577704E-2,9.400833130E0
3.337403280E-1,2.160767019E-1,-2.334346622E-2,9.630676270E0
3.357381920E-1,2.304419130E-1,-1.376665942E-2,9.692925453E0
3.377360570E-1,2.160767019E-1,-1.047463268E-1,9.611522675E0
3.397339220E-1,2.304419130E-1,-1.238999367E-1,9.688137054E0
3.417317860E-1,3.309983909E-1,-3.292027488E-2,9.726444244E0
3.437296510E-1,4.267664552E-1,4.369417951E-2,9.750386238E0
3.457275150E-1,4.890156984E-1,9.636662155E-2,9.692925453E0
3.477252760E-1,5.081692934E-1,2.932897024E-2,9.659406662E0
3.497230360E-1,4.938040972E-1,1.975216344E-2,9.592369080E0
3.517207970E-1,4.746504724E-1,1.017535757E-2,9.458293915E0
3.537185570E-1,4.219780564E-1,1.017535757E-2,9.434351921E0
3.557163170E-1,4.076128304E-1,8.200141042E-2,9.424775124E0
3.577140780E-1,3.884592354E-1,1.250970364E-1,9.391256332E0
3.597118380E-1,3.070563674E-1,1.203086376E-1,9.309853554E0
3.617095990E-1,9.157821536E-2,-1.191115379E-1,9.266757965E0
3.637073590E-1,-2.813187055E-2,-2.388216257E-1,9.448717117E0
3.657051190E-1,1.975216344E-2,-1.478419602E-1,9.654618263E0
3.677028800E-1,3.890577704E-2,-1.526303589E-1,9.640253067E0
3.697006400E-1,2.454056777E-2,-2.627636492E-1,9.621099472E0
3.716984010E-1,-3.770867735E-2,-2.148796022E-1,9.803058624E0
3.736961610E-1,1.017535757E-2,-8.559270948E-2,9.898826599E0
3.756939220E-1,2.454056777E-2,-7.601590455E-2,9.721655846E0
3.776916820E-1,-7.122749835E-2,-1.957259923E-1,9.611522675E0
3.796894420E-1,-1.334767491E-1,-2.053027898E-1,9.592369080E0
3.816872030E-1,-1.238999367E-1,-1.526303589E-1,9.578003883E0
3.836849630E-1,-4.249707982E-2,-1.095347255E-1,9.515754700E0
3.856827240E-1,-4.189853091E-3,-1.238999367E-1,9.458293915E0
3.876804840E-1,1.975216344E-2,-3.058592677E-1,9.482235909E0
3.896782440E-1,8.200141042E-2,-4.112041295E-1,9.534908295E0
3.916760050E-1,2.591723204E-1,-4.159925580E-1,9.587580681E0
3.936737650E-1,3.740940094E-1,-5.596446395E-1,9.463082314E0
3.956715260E-1,3.262099922E-1,-8.421604633E-1,9.539696693E0
3.976692860E-1,3.693056107E-1,-8.517372608E-1,9.625887871E0
3.996670470E-1,4.890156984E-1,-7.511807680E-1,9.716867447E0
4.016648590E-1,5.560533404E-1,-7.368155718E-1,9.726444244E0
4.036627240E-1,5.321113467E-1,-6.985083222E-1,9.683348656E0
4.056606400E-1,6.039373875E-1,-5.740098357E-1,9.501389503E0
4.076586090E-1,5.129576921E-1,-5.596446395E-1,9.396044731E0
4.096565780E-1,3.836708367E-1,-5.309142470E-1,9.381679535E0
4.116545990E-1,3.453635871E-1,-3.537433147E-1,9.376891136E0
4.136526190E-1,2.783259451E-1,-2.148796022E-1,9.352949142E0
4.156506400E-1,1.921346933E-1,-1.478419602E-1,9.314641953E0
4.176486610E-1,1.346738487E-1,-1.143231317E-1,9.319430351E0
4.196466820E-1,8.200141042E-2,-5.207388848E-2,9.391256332E0
4.216447030E-1,1.017535757E-2,-6.643909961E-2,9.338583946E0
4.236427240E-1,-4.728548229E-2,-1.238999367E-1,9.482235909E0
4.256407440E-1,-6.165069342E-2,-7.601590455E-2,9.645041466E0
4.276387650E-1,-5.686229095E-2,-1.855506375E-2,9.716867447E0
4.296367860E-1,-2.813187055E-2,3.411737457E-2,9.779116631E0
4.316348070E-1,-9.516951442E-2,-3.770867735E-2,9.783905029E0
4.336328280E-1,-1.765723825E-1,-1.238999367E-1,9.831789017E0
4.356308490E-1,-1.765723825E-1,-1.478419602E-1,9.841365814E0
4.376287130E-1,-2.627636492E-1,-3.250128925E-1,9.774328232E0
4.396265780E-1,-3.537433147E-1,-4.351461530E-1,9.827000618E0
4.416243380E-1,-2.675520480E-1,-3.537433147E-1,9.812635422E0
4.436220990E-1,-1.813607812E-1,-2.340332121E-1,9.386467934E0
4.456198590E-1,-2.196680009E-1,-1.957259923E-1,9.525331497E0
4.476176190E-1,-2.771288455E-1,-3.106476665E-1,9.463082314E0
4.496153800E-1,-4.016273320E-1,-4.399345517E-1,9.592369080E0
4.516131400E-1,-3.393780887E-1,-3.345896900E-1,9.779116631E0
4.536109010E-1,-2.675520480E-1,-3.537433147E-1,9.798270226E0
4.556086610E-1,-3.058592677E-1,-4.159925580E-1,9.870096207E0
4.576064220E-1,-2.675520480E-1,-4.590881765E-1,9.917980194E0
4.596041820E-1,-2.196680009E-1,-4.399345517E-1,9.999382973E0
4.616019420E-1,-1.334767491E-1,-3.345896900E-1,9.985017776E0
4.635997030E-1,-1.622071713E-1,-3.968389332E-1,9.985017776E0
4.655974630E-1,-2.100912035E-1,-4.973953962E-1,9.860519409E0
4.675952240E-1,-1.909375787E-1,-4.782418013E-1,9.812635422E0
4.695929840E-1,-1.334767491E-1,-2.723404467E-1,9.793481827E0
4.715907440E-1,-1.095347255E-1,-1.622071713E-1,9.716867447E0
4.735885050E-1,-2.005143911E-1,-2.244564146E-1,9.635464668E0
4.755862650E-1,-2.627636492E-1,-1.909375787E-1,9.635464668E0
4.775839220E-1,-2.579752207E-1,-9.995792061E-2,9.659406662E0
4.795815780E-1,-2.053027898E-1,3.890577704E-2,9.645041466E0
4.815792340E-1,-1.143231317E-1,1.346738487E-1,9.558850288E0
4.835768900E-1,-1.765723825E-1,4.369417951E-2,9.549273491E0
4.855745470E-1,-1.861491799E-1,-6.165069342E-2,9.515754700E0
4.875721510E-1,-1.813607812E-1,-4.728548229E-2,9.611522675E0
4.895697550E-1,-1.095347255E-1,1.203086376E-1,9.740809441E0
4.915673590E-1,-1.382651478E-1,1.777694821E-1,9.721655846E0
4.935649630E-1,-2.100912035E-1,1.442506462E-1,9.654618263E0
4.955625670E-1,-2.005143911E-1,1.394622475E-1,9.645041466E0
4.975601720E-1,-2.483984232E-1,1.011550203E-1,9.707290649E0
4.995577760E-1,-2.819172442E-1,7.721300423E-2,9.625887871E0
5.015553800E-1,-3.154360652E-1,-7.601590455E-2,9.582792282E0
5.035529840E-1,-3.106476665E-1,-1.286883354E-1,9.726444244E0
5.055505880E-1,-2.675520480E-1,-8.080431074E-2,9.822212219E0
5.075481920E-1,-1.622071713E-1,-8.978256024E-3,9.764751434E0
5.095457970E-1,-1.430535465E-1,-1.430535465E-1,9.563638687E0
5.115434010E-1,-2.005143911E-1,-3.298012912E-1,9.544485092E0
5.135410050E-1,-9.038111567E-2,-2.388216257E-1,9.721655846E0
5.155386090E-1,9.636662155E-2,-5.686229095E-2,9.736021042E0
5.175362130E-1,1.346738487E-1,-1.095347255E-1,9.530119896E0
5.195338170E-1,9.636662155E-2,-1.622071713E-1,9.477447510E0
5.215314220E-1,5.805939063E-2,-1.574187577E-1,9.544485092E0
5.235290260E-1,6.763619930E-2,-9.516951442E-2,9.515754700E0
5.255266820E-1,8.678980917E-2,-1.855506375E-2,9.578003883E0
5.275243900E-1,1.394622475E-1,1.298854351E-1,9.683348656E0
5.295221510E-1,9.157821536E-2,1.777694821E-1,9.721655846E0
5.315199630E-1,1.059434265E-1,2.687491477E-1,9.630676270E0
5.335178280E-1,9.157821536E-2,3.453635871E-1,9.635464668E0
5.355157440E-1,6.763619930E-2,3.405751884E-1,9.630676270E0
5.375137130E-1,1.975216344E-2,3.453635871E-1,9.621099472E0
5.395117340E-1,-1.855506375E-2,3.118447661E-1,9.664195061E0
5.415098070E-1,-1.855506375E-2,3.118447661E-1,9.702502251E0
5.435078800E-1,-5.207388848E-2,2.687491477E-1,9.716867447E0
5.455059530E-1,-1.861491799E-1,1.059434265E-1,9.707290649E0
5.475040260E-1,-2.148796022E-1,5.805939063E-2,9.812635422E0
5.495020990E-1,-1.143231317E-1,1.825578809E-1,9.850942612E0
5.515000670E-1,-5.686229095E-2,1.586158574E-1,9.774328232E0
5.534979840E-1,-1.191115379E-1,1.011550203E-1,9.750386238E0
5.554957970E-1,-1.238999367E-1,1.394622475E-1,9.884461403E0
5.574936090E-1,-6.165069342E-2,2.112883031E-1,9.980229378E0
5.594914220E-1,-1.855506375E-2,2.926911712E-1,9.884461403E0
5.614892340E-1,1.017535757E-2,2.591723204E-1,9.736021042E0
5.634870470E-1,-3.770867735E-2,1.203086376E-1,9.621099472E0
5.654848070E-1,5.386953708E-3,4.848258570E-2,9.788693428E0
5.674825670E-1,2.454056777E-2,1.490390599E-1,9.994594574E0
5.694802240E-1,1.250970364E-1,2.687491477E-1,1.007599831E1
5.714778800E-1,2.064998895E-1,3.022679687E-1,9.980229378E0
5.734755360E-1,1.729810685E-1,3.357867897E-1,9.855731010E0
5.754731920E-1,1.538274586E-1,3.357867897E-1,9.850942612E0
5.774708490E-1,8.678980917E-2,3.166331649E-1,9.956287384E0
5.794685050E-1,2.932897024E-2,2.974795699E-1,9.994594574E0
5.814662130E-1,7.721300423E-2,2.639607489E-1,1.001374817E1
5.834639740E-1,-1.376665942E-2,1.059434265E-1,1.009036350E1
5.854617860E-1,-1.334767491E-1,2.454056777E-2,1.021007347E1
5.874596510E-1,-2.813187055E-2,2.256535143E-1,1.029626465E1
5.894575670E-1,5.805939063E-2,3.022679687E-1,1.019570827E1
5.914555360E-1,1.496376097E-2,1.346738487E-1,9.975440979E0
5.934535570E-1,-8.559270948E-2,2.454056777E-2,1.011430550E1
5.954516300E-1,-2.334346622E-2,1.442506462E-1,1.035851383E1
5.974497550E-1,-1.855506375E-2,2.352303118E-1,1.039682102E1
5.994479320E-1,-2.813187055E-2,1.873462796E-1,1.014782429E1
6.014461610E-1,-6.165069342E-2,8.200141042E-2,9.956287384E0
6.034444420E-1,-1.478419602E-1,2.454056777E-2,1.005684471E1
6.054427240E-1,-1.191115379E-1,-4.249707982E-2,1.018613148E1
6.074410050E-1,-9.038111567E-2,4.369417951E-2,1.013824749E1
6.094392860E-1,2.932897024E-2,5.805939063E-2,1.005205631E1
6.114375670E-1,1.017535757E-2,4.369417951E-2,9.841365814E0
6.134356400E-1,-6.643909961E-2,-3.770867735E-2,9.683348656E0
6.154334010E-1,-6.643909961E-2,-4.249707982E-2,9.702502251E0
6.174311610E-1,1.975216344E-2,4.848258570E-2,9.654618263E0
6.194289220E-1,-3.292027488E-2,-6.165069342E-2,9.539696693E0
6.214266300E-1,2.932897024E-2,-3.770867735E-2,9.558850288E0
6.234243380E-1,5.805939063E-2,1.496376097E-2,9.582792282E0
6.254220470E-1,1.346738487E-1,1.017535757E-2,9.472659111E0
6.274197550E-1,1.346738487E-1,-6.165069342E-2,9.453505516E0
6.294174630E-1,1.873462796E-1,8.678980917E-2,9.625887871E0
6.314152240E-1,3.214215636E-1,2.208651006E-1,9.573215485E0
6.334130360E-1,2.543839216E-1,8.678980917E-2,9.419986725E0
6.354109010E-1,2.879027426E-1,1.442506462E-1,9.453505516E0
6.374088170E-1,3.118447661E-1,1.442506462E-1,9.376891136E0
6.394067860E-1,2.064998895E-1,-5.686229095E-2,9.309853554E0
6.414047550E-1,2.208651006E-1,-5.686229095E-2,9.496601105E0
6.434027240E-1,3.214215636E-1,6.763619930E-2,9.506177902E0
6.454006920E-1,2.400187254E-1,-4.728548229E-2,9.271546364E0
6.473986610E-1,1.729810685E-1,-1.047463268E-1,9.376891136E0
6.493966300E-1,2.783259451E-1,1.586158574E-1,9.573215485E0
6.513944940E-1,2.687491477E-1,1.490390599E-1,9.424775124E0
6.533922030E-1,1.298854351E-1,-7.601590455E-2,9.367314339E0
6.553897550E-1,1.155202314E-1,5.985504249E-4,9.640253067E0
6.573873070E-1,1.107318252E-1,4.369417951E-2,9.750386238E0
6.593848590E-1,3.890577704E-2,-7.122749835E-2,9.568427086E0
6.613824110E-1,-8.978256024E-3,-9.995792061E-2,9.668983459E0
6.633799630E-1,1.496376097E-2,-3.770867735E-2,9.716867447E0
6.653775150E-1,1.975216344E-2,-5.686229095E-2,9.625887871E0
6.673750670E-1,4.369417951E-2,-1.191115379E-1,9.645041466E0
6.693726190E-1,8.678980917E-2,5.386953708E-3,9.774328232E0
6.713701720E-1,1.729810685E-1,8.200141042E-2,9.726444244E0
6.733677760E-1,1.394622475E-1,8.678980917E-2,9.621099472E0
6.753654320E-1,1.538274586E-1,1.394622475E-1,9.534908295E0
6.773631400E-1,5.386953708E-3,-8.559270948E-2,9.554061890E0
6.793609010E-1,6.284779310E-2,-4.189853091E-3,9.850942612E0
6.813587130E-1,2.831143439E-1,2.735375464E-1,1.006642151E1
6.833565780E-1,3.405751884E-1,3.740940094E-1,9.827000618E0
6.853544940E-1,2.352303118E-1,1.634042710E-1,9.582792282E0
6.873524630E-1,1.298854351E-1,1.496376097E-2,9.726444244E0
6.893504320E-1,1.203086376E-1,2.932897024E-2,1.005205631E1
6.913484010E-1,2.017114908E-1,1.346738487E-1,1.021486187E1
6.933463690E-1,3.166331649E-1,2.687491477E-1,1.016218948E1
6.953443380E-1,2.926911712E-1,8.200141042E-2,9.903614998E0
6.973423070E-1,1.969230920E-1,6.763619930E-2,9.975440979E0
6.993402760E-1,2.543839216E-1,1.538274586E-1,1.001853657E1
7.013382440E-1,3.166331649E-1,2.304419130E-1,9.836577415E0
7.033362130E-1,2.208651006E-1,1.969230920E-1,9.611522675E0
7.053341820E-1,6.284779310E-2,-3.292027488E-2,9.415198326E0
7.073321510E-1,-3.770867735E-2,-1.574187577E-1,9.458293915E0
7.093301190E-1,6.763619930E-2,-1.855506375E-2,9.673771858E0
7.113280880E-1,1.346738487E-1,5.386953708E-3,9.740809441E0
7.133259530E-1,7.721300423E-2,-1.478419602E-1,9.534908295E0
7.153238170E-1,1.017535757E-2,-1.669955701E-1,9.606734276E0
7.173216820E-1,-3.292027488E-2,-1.430535465E-1,9.702502251E0
7.193195470E-1,-6.165069342E-2,-1.047463268E-1,9.707290649E0
7.213174110E-1,-3.770867735E-2,1.017535757E-2,9.750386238E0
7.233152760E-1,-9.038111567E-2,5.805939063E-2,9.702502251E0
7.253131400E-1,-1.957259923E-1,-1.855506375E-2,9.554061890E0
7.273110050E-1,-1.717839688E-1,1.250970364E-1,9.118317604E0
7.293088170E-1,2.454056777E-2,4.507084787E-1,7.983465672E0
7.313064220E-1,-1.813607812E-1,5.991489887E-1,8.629899979E0
7.333040260E-1,-1.382651478E-1,5.273229480E-1,8.883685112E0
7.353016300E-1,-1.717839688E-1,1.921346933E-1,9.036913872E0
7.372992340E-1,-2.005143911E-1,-5.686229095E-2,9.391256332E0
7.392968380E-1,-3.292027488E-2,-1.143231317E-1,9.865307808E0
7.412944420E-1,1.975216344E-2,-1.238999367E-1,1.018613148E1
7.432920470E-1,2.454056777E-2,-1.191115379E-1,1.014782429E1
7.452896510E-1,2.932897024E-2,-1.622071713E-1,1.001374817E1
7.472872550E-1,-4.249707982E-2,-8.559270948E-2,9.946710587E0
7.492848590E-1,-1.238999367E-1,5.985504249E-4,9.807847023E0
7.512824630E-1,-2.675520480E-1,-8.978256024E-3,9.692925453E0
7.532800670E-1,-3.058592677E-1,1.681926697E-1,9.759963036E0
7.552776720E-1,-2.962824702E-1,2.448071241E-1,9.750386238E0
7.572753280E-1,-3.202244639E-1,2.639607489E-1,9.755174637E0
7.592730360E-1,-2.914940715E-1,3.836708367E-1,9.803058624E0
7.612707970E-1,-3.010708690E-1,3.166331649E-1,9.755174637E0
7.632686090E-1,-3.393780887E-1,3.118447661E-1,9.865307808E0
7.652664740E-1,-2.819172442E-1,3.788824081E-1,9.831789017E0
7.672643900E-1,-2.819172442E-1,3.309983909E-1,9.731232643E0
7.692623590E-1,-3.250128925E-1,2.256535143E-1,9.611522675E0
7.712603800E-1,-3.489548862E-1,1.155202314E-1,9.597157478E0
7.732584010E-1,-3.298012912E-1,1.394622475E-1,9.740809441E0
7.752564220E-1,-2.627636492E-1,2.064998895E-1,9.759963036E0
7.772544420E-1,-3.824737072E-1,7.721300423E-2,9.606734276E0
7.792524110E-1,-4.207809567E-1,1.975216344E-2,9.544485092E0
7.812502240E-1,-3.441664875E-1,1.011550203E-1,9.568427086E0
7.832479320E-1,-3.393780887E-1,1.011550203E-1,9.578003883E0
7.852455360E-1,-2.771288455E-1,1.442506462E-1,9.467870712E0
7.872431400E-1,-3.202244639E-1,7.721300423E-2,9.453505516E0
7.892407440E-1,-3.010708690E-1,2.932897024E-2,9.501389503E0
7.912383490E-1,-1.957259923E-1,8.678980917E-2,9.597157478E0
7.932359530E-1,-1.478419602E-1,9.157821536E-2,9.625887871E0
7.952335570E-1,-1.574187577E-1,5.327098817E-2,9.621099472E0
7.972311610E-1,-1.574187577E-1,7.721300423E-2,9.539696693E0
7.992288170E-1,-1.095347255E-1,1.442506462E-1,9.487024307E0
8.012265260E-1,-8.080431074E-2,2.687491477E-1,9.563638687E0
8.032242340E-1,-1.286883354E-1,2.304419130E-1,9.616311073E0
8.052219420E-1,-1.238999367E-1,2.160767019E-1,9.731232643E0
8.072196510E-1,-8.559270948E-2,2.448071241E-1,9.855731010E0
8.092173590E-1,-9.516951442E-2,2.304419130E-1,9.889249802E0
8.112150670E-1,-1.382651478E-1,2.304419130E-1,9.889249802E0
8.132127760E-1,-9.516951442E-2,2.639607489E-1,9.793481827E0
8.152104840E-1,-1.191115379E-1,2.495955229E-1,9.712079048E0
8.172081920E-1,-1.574187577E-1,2.160767019E-1,9.726444244E0
8.192059010E-1,-1.334767491E-1,2.495955229E-1,9.769539833E0
8.212036090E-1,-1.669955701E-1,2.017114908E-1,9.788693428E0
8.232013170E-1,-1.574187577E-1,1.873462796E-1,9.740809441E0
8.251990780E-1,-1.622071713E-1,2.352303118E-1,9.745597839E0
8.271968380E-1,-1.238999367E-1,2.400187254E-1,9.707290649E0
8.291945990E-1,-1.191115379E-1,2.160767019E-1,9.654618263E0
8.311923590E-1,-1.526303589E-1,1.873462796E-1,9.683348656E0
8.331901190E-1,-1.382651478E-1,2.400187254E-1,9.788693428E0
8.351878800E-1,-1.622071713E-1,2.256535143E-1,9.812635422E0
8.371856920E-1,-1.526303589E-1,2.495955229E-1,9.769539833E0
8.391835050E-1,-1.047463268E-1,3.022679687E-1,9.898826599E0
8.411813170E-1,-1.047463268E-1,3.214215636E-1,1.010472870E1
8.431791300E-1,-8.080431074E-2,3.022679687E-1,1.007599831E1
8.451769420E-1,-2.334346622E-2,3.309983909E-1,1.016697788E1
8.471747550E-1,-2.334346622E-2,2.974795699E-1,1.026274586E1
8.491725670E-1,-2.813187055E-2,3.166331649E-1,1.027711105E1
8.511703800E-1,3.411737457E-2,4.363432527E-1,1.010472870E1
8.531681920E-1,5.386953708E-3,4.650736749E-1,1.010472870E1
8.551660050E-1,1.496376097E-2,5.129576921E-1,1.008557510E1
8.571638170E-1,3.411737457E-2,4.842272997E-1,1.009994030E1
8.591616300E-1,1.496376097E-2,4.602852762E-1,1.032020664E1
8.611594420E-1,3.890577704E-2,4.890156984E-1,1.040639782E1
8.631572550E-1,2.932897024E-2,4.698620737E-1,1.036809063E1
8.651550670E-1,-1.376665942E-2,4.507084787E-1,1.042076302E1
8.671529320E-1,-5.207388848E-2,4.267664552E-1,1.046385860E1
8.691508490E-1,5.985504249E-4,5.225345492E-1,1.039203262E1
8.711488170E-1,-4.249707982E-2,4.890156984E-1,1.030105305E1
8.731468380E-1,-1.047463268E-1,4.794389009E-1,1.015740108E1
8.751449110E-1,-1.478419602E-1,5.273229480E-1,1.000895977E1
8.771429840E-1,-1.765723825E-1,4.411316514E-1,1.008078671E1
8.791410570E-1,-1.574187577E-1,5.033808947E-1,1.004247856E1
8.811391300E-1,-1.382651478E-1,5.321113467E-1,9.985017776E0
8.831372030E-1,-1.669955701E-1,4.363432527E-1,9.870096207E0
8.851352760E-1,-2.579752207E-1,4.028244317E-1,9.913191795E0
8.871333490E-1,-2.483984232E-1,4.842272997E-1,9.961075783E0
8.891314220E-1,-2.148796022E-1,4.698620737E-1,9.836577415E0
8.911294940E-1,-2.244564146E-1,3.788824081E-1,9.750386238E0
8.931275670E-1,-2.340332121E-1,3.118447661E-1,9.870096207E0
8.951256400E-1,-2.196680009E-1,4.028244317E-1,9.985017776E0
8.971233490E-1,-1.526303589E-1,5.225345492E-1,9.980229378E0
8.991210570E-1,-1.622071713E-1,5.033808947E-1,9.501389503E0
9.011187650E-1,-2.100912035E-1,3.645172119E-1,9.534908295E0
9.031164740E-1,-2.244564146E-1,3.501519859E-1,9.673771858E0
9.051141820E-1,-1.526303589E-1,3.693056107E-1,9.841365814E0
9.071118900E-1,-6.165069342E-2,4.938040972E-1,9.865307808E0
9.091096510E-1,-4.249707982E-2,5.033808947E-1,9.520543098E0
9.111074630E-1,-4.249707982E-2,5.321113467E-1,9.501389503E0
9.131053280E-1,-4.189853091E-3,4.890156984E-1,9.568427086E0
9.151032440E-1,5.985504249E-4,5.177460909E-1,9.563638687E0
9.171012130E-1,1.496376097E-2,4.602852762E-1,9.463082314E0
9.190991820E-1,1.017535757E-2,3.980360329E-1,9.592369080E0
9.210971510E-1,5.985504249E-4,4.219780564E-1,9.712079048E0
9.230951190E-1,-4.249707982E-2,4.076128304E-1,9.798270226E0
9.250930880E-1,5.985504249E-4,4.794389009E-1,9.908403397E0
9.270910570E-1,5.327098817E-2,6.566098332E-1,9.956287384E0
9.290890260E-1,3.890577704E-2,6.949170232E-1,9.764751434E0
9.310869940E-1,5.386953708E-3,6.183025837E-1,9.601945877E0
9.330849630E-1,-6.165069342E-2,6.326677799E-1,9.664195061E0
9.350827760E-1,-6.643909961E-2,7.763199210E-1,9.750386238E0
9.370805880E-1,-9.995792061E-2,6.422445774E-1,9.587580681E0
9.390784010E-1,-1.191115379E-1,5.273229480E-1,9.721655846E0
9.410762130E-1,-1.478419602E-1,5.895721912E-1,1.009994030E1
9.430740260E-1,-9.516951442E-2,6.997054219E-1,1.018613148E1
9.450718380E-1,-9.516951442E-2,6.613982320E-1,9.879673004E0
9.470696510E-1,-1.957259923E-1,4.890156984E-1,9.740809441E0
9.490674630E-1,-1.909375787E-1,7.428010702E-1,9.827000618E0
9.510652760E-1,-1.478419602E-1,8.960300088E-1,9.668983459E0
9.530631400E-1,-1.430535465E-1,8.481459618E-1,9.424775124E0
9.550610570E-1,-1.669955701E-1,7.140706778E-1,9.467870712E0
9.570590260E-1,-1.382651478E-1,7.571662664E-1,9.793481827E0
9.590570470E-1,-8.559270948E-2,7.188590765E-1,9.898826599E0
9.610550670E-1,-9.038111567E-2,6.470330358E-1,9.740809441E0
9.630530880E-1,-1.382651478E-1,5.177460909E-1,9.520543098E0
9.650511090E-1,-1.430535465E-1,4.124012291E-1,9.769539833E0
9.670491300E-1,-9.516951442E-2,5.416881442E-1,1.018134308E1
9.690471510E-1,1.975216344E-2,6.853402257E-1,1.020528507E1
9.710451720E-1,-5.686229095E-2,6.709750295E-1,9.874884605E0
9.730431400E-1,-9.038111567E-2,6.374561787E-1,9.716867447E0
9.750409530E-1,-8.559270948E-2,6.613982320E-1,9.563638687E0
9.770387650E-1,-4.728548229E-2,6.661866307E-1,9.750386238E0
9.790365780E-1,-9.995792061E-2,7.523778677E-1,9.932345390E0
9.810343900E-1,-6.643909961E-2,7.140706778E-1,9.850942612E0
9.830322030E-1,-6.643909961E-2,6.135141850E-1,9.673771858E0
9.850300150E-1,-2.334346622E-2,6.135141850E-1,9.683348656E0
9.870278280E-1,3.411737457E-2,7.763199210E-1,9.884461403E0
9.890256400E-1,4.369417951E-2,8.720879555E-1,9.932345390E0
9.910234530E-1,5.386953708E-3,7.092822790E-1,9.616311073E0
9.930212650E-1,-1.095347255E-1,4.459200799E-1,9.376891136E0
9.950190780E-1,-1.478419602E-1,2.926911712E-1,9.372102737E0
9.970169420E-1,-1.047463268E-1,2.064998895E-1,9.635464668E0
9.990148070E-1,-9.995792061E-2,2.256535143E-1,9.975440979E0
1.001012672E0,-8.080431074E-2,1.634042710E-1,9.985017776E0
1.003010536E0,-1.430535465E-1,1.586158574E-1,9.831789017E0
1.005008401E0,-1.957259923E-1,2.400187254E-1,9.913191795E0
1.007006265E0,-1.622071713E-1,4.315548539E-1,9.913191795E0
1.009004130E0,-2.148796022E-1,5.464765429E-1,9.745597839E0
1.011001994E0,-3.393780887E-1,5.321113467E-1,9.688137054E0
1.012999859E0,-3.441664875E-1,5.225345492E-1,9.630676270E0
1.014997724E0,-2.867056429E-1,5.704185367E-1,9.654618263E0
1.016995536E0,-2.436100245E-1,5.177460909E-1,9.678560257E0
1.018993349E0,-2.579752207E-1,4.794389009E-1,9.850942612E0
1.020991161E0,-1.765723825E-1,5.368997455E-1,9.879673004E0
1.022988974E0,-1.957259923E-1,4.028244317E-1,9.750386238E0
1.024986786E0,-2.531868219E-1,3.262099922E-1,9.702502251E0
1.026984599E0,-2.436100245E-1,2.974795699E-1,9.769539833E0
1.028982411E0,-2.148796022E-1,3.262099922E-1,9.908403397E0
1.030980224E0,-2.100912035E-1,3.549404144E-1,9.870096207E0
1.032978036E0,-1.669955701E-1,4.890156984E-1,9.889249802E0
1.034975849E0,-1.334767491E-1,5.512649417E-1,9.668983459E0
1.036973661E0,-1.813607812E-1,5.129576921E-1,9.510966301E0
1.038971474E0,-7.122749835E-2,5.560533404E-1,9.487024307E0
1.040969286E0,-1.382651478E-1,4.459200799E-1,9.568427086E0
1.042967099E0,-1.717839688E-1,3.980360329E-1,9.692925453E0
1.044964911E0,-1.622071713E-1,4.219780564E-1,9.736021042E0
1.046962724E0,-8.559270948E-2,3.836708367E-1,9.688137054E0
1.048960588E0,-2.813187055E-2,2.974795699E-1,9.664195061E0
1.050958505E0,-5.207388848E-2,3.118447661E-1,9.688137054E0
1.052956422E0,4.369417951E-2,3.214215636E-1,9.779116631E0
1.054954338E0,1.298854351E-1,3.405751884E-1,9.932345390E0
1.056952255E0,5.327098817E-2,2.591723204E-1,1.005684471E1
1.058950172E0,9.157821536E-2,3.788824081E-1,9.917980194E0
1.060948088E0,5.327098817E-2,6.470330358E-1,9.865307808E0
1.062946005E0,-2.334346622E-2,5.991489887E-1,9.640253067E0
1.064943922E0,-2.334346622E-2,6.183025837E-1,9.453505516E0
1.066941838E0,-4.189853091E-3,6.709750295E-1,9.549273491E0
1.068939755E0,-8.978256024E-3,5.752069354E-1,9.616311073E0
1.070937672E0,-1.376665942E-2,4.171896577E-1,9.688137054E0
1.072935588E0,1.975216344E-2,4.842272997E-1,9.922768593E0
1.074933505E0,1.107318252E-1,6.135141850E-1,9.860519409E0
1.076931422E0,9.636662155E-2,4.507084787E-1,9.496601105E0
1.078929338E0,8.678980917E-2,3.070563674E-1,9.630676270E0
1.080927255E0,1.298854351E-1,4.650736749E-1,1.006642151E1
1.082925224E0,1.729810685E-1,5.704185367E-1,1.017655468E1
1.084923192E0,9.636662155E-2,5.081692934E-1,9.750386238E0
1.086921161E0,-4.249707982E-2,4.219780564E-1,9.673771858E0
1.088919182E0,-5.686229095E-2,2.974795699E-1,9.625887871E0
1.090917255E0,1.496376097E-2,3.645172119E-1,9.846154213E0
1.092915380E0,5.327098817E-2,4.698620737E-1,9.994594574E0
1.094913505E0,4.369417951E-2,4.507084787E-1,9.846154213E0
1.096911630E0,4.369417951E-2,5.416881442E-1,9.855731010E0
1.098909807E0,4.369417951E-2,4.554968774E-1,9.731232643E0
1.100908036E0,-9.995792061E-2,3.740940094E-1,9.621099472E0
1.102906317E0,-5.207388848E-2,5.416881442E-1,9.740809441E0
1.104904599E0,-8.559270948E-2,4.363432527E-1,9.831789017E0
1.106902880E0,-1.765723825E-1,3.788824081E-1,9.793481827E0
1.108901161E0,-2.196680009E-1,3.597288132E-1,9.736021042E0
1.110899442E0,-3.058592677E-1,3.597288132E-1,9.898826599E0
1.112897724E0,-3.058592677E-1,4.028244317E-1,9.668983459E0
1.114896005E0,-2.819172442E-1,3.118447661E-1,9.472659111E0
1.116894286E0,-3.010708690E-1,1.538274586E-1,9.372102737E0
1.118892567E0,-2.867056429E-1,9.636662155E-2,9.688137054E0
1.120890849E0,-2.005143911E-1,2.017114908E-1,9.975440979E0
1.122888974E0,-1.861491799E-1,4.848258570E-2,9.736021042E0
1.124886890E0,-1.909375787E-1,-5.207388848E-2,9.563638687E0
1.126884755E0,-1.622071713E-1,8.200141042E-2,9.582792282E0
1.128882619E0,-1.286883354E-1,2.017114908E-1,9.817423820E0
1.130880484E0,-8.080431074E-2,4.411316514E-1,9.937133789E0
1.132878349E0,-3.770867735E-2,4.650736749E-1,9.654618263E0
1.134876213E0,-1.855506375E-2,3.357867897E-1,9.520543098E0
1.136874078E0,3.890577704E-2,3.836708367E-1,9.712079048E0
1.138871942E0,1.681926697E-1,5.225345492E-1,9.731232643E0
1.140869807E0,1.394622475E-1,4.985924959E-1,9.750386238E0
1.142867672E0,2.495955229E-1,3.549404144E-1,9.731232643E0
1.144865536E0,2.543839216E-1,2.639607489E-1,9.951498985E0
1.146863453E0,2.783259451E-1,6.853402257E-1,1.038724422E1
1.148861369E0,2.974795699E-1,9.726444483E-1,1.003290176E1
1.150859286E0,2.256535143E-1,7.380126715E-1,9.477447510E0
1.152857203E0,1.729810685E-1,4.794389009E-1,9.089587212E0
1.154855119E0,1.729810685E-1,3.932476342E-1,9.343372345E0
1.156853036E0,2.495955229E-1,6.949170232E-1,9.985017776E0
1.158850953E0,3.453635871E-1,7.906851172E-1,1.003769016E1
1.160848869E0,1.777694821E-1,5.225345492E-1,9.884461403E0
1.162846786E0,7.242459804E-2,4.124012291E-1,9.884461403E0
1.164844703E0,-8.978256024E-3,3.453635871E-1,9.903614998E0
1.166842619E0,-5.207388848E-2,4.363432527E-1,9.779116631E0
1.168840432E0,-1.813607812E-1,4.890156984E-1,9.463082314E0
1.170838140E0,-2.196680009E-1,3.645172119E-1,9.084798813E0
1.172835849E0,-3.441664875E-1,-8.080431074E-2,9.108740807E0
1.174833557E0,-3.010708690E-1,-2.196680009E-1,9.606734276E0
1.176831265E0,-2.531868219E-1,6.763619930E-2,1.035851383E1
1.178828974E0,-9.516951442E-2,4.219780564E-1,1.050216579E1
1.180826682E0,-1.430535465E-1,2.879027426E-1,1.003769016E1
1.182824390E0,-1.238999367E-1,1.346738487E-1,9.673771858E0
1.184822099E0,-2.005143911E-1,9.157821536E-2,9.721655846E0
1.186819859E0,-2.579752207E-1,4.507084787E-1,1.000895977E1
1.188817672E0,-1.286883354E-1,6.901286244E-1,9.903614998E0
1.190815536E0,-2.819172442E-1,5.033808947E-1,9.544485092E0
1.192813453E0,-3.489548862E-1,3.405751884E-1,9.434351921E0
1.194811422E0,-3.010708690E-1,3.405751884E-1,9.525331497E0
1.196809442E0,-1.143231317E-1,3.788824081E-1,9.530119896E0
1.198807515E0,-1.238999367E-1,2.352303118E-1,9.726444244E0
1.200805640E0,-2.813187055E-2,3.788824081E-1,9.956287384E0
1.202803765E0,-2.334346622E-2,4.124012291E-1,9.999382973E0
1.204801890E0,-8.978256024E-3,5.081692934E-1,1.005684471E1
1.206800015E0,1.681926697E-1,5.273229480E-1,9.783905029E0
1.208798140E0,4.848258570E-2,1.586158574E-1,9.625887871E0
1.210796005E0,3.890577704E-2,2.448071241E-1,9.865307808E0
1.212793869E0,-1.047463268E-1,3.884592354E-1,1.010951710E1
1.214791578E0,-2.100912035E-1,2.879027426E-1,9.917980194E0
1.216789234E0,-1.861491799E-1,2.735375464E-1,9.721655846E0
1.218786890E0,-1.717839688E-1,3.645172119E-1,9.635464668E0
1.220784442E0,-2.148796022E-1,3.501519859E-1,9.558850288E0
1.222781942E0,-3.106476665E-1,1.681926697E-1,9.415198326E0
1.224779442E0,-3.441664875E-1,6.284779310E-2,9.587580681E0
1.226776942E0,-2.627636492E-1,-8.978256024E-3,9.635464668E0
1.228774442E0,-1.765723825E-1,1.107318252E-1,9.860519409E0
1.230771942E0,-7.601590455E-2,3.693056107E-1,1.004247856E1
1.232769442E0,5.386953708E-3,3.597288132E-1,9.721655846E0
1.234766994E0,1.017535757E-2,2.495955229E-1,9.554061890E0
1.236764599E0,-8.978256024E-3,3.549404144E-1,9.573215485E0
1.238762255E0,3.411737457E-2,2.687491477E-1,9.405621529E0
1.240759963E0,-6.165069342E-2,2.454056777E-2,9.587580681E0
1.242757724E0,7.242459804E-2,4.076128304E-1,1.001374817E1
1.244755536E0,1.394622475E-1,5.129576921E-1,9.917980194E0
1.246753349E0,2.454056777E-2,7.242459804E-2,9.429563522E0
1.248751161E0,-7.601590455E-2,5.386953708E-3,9.692925453E0
1.250748974E0,-7.122749835E-2,2.448071241E-1,1.004247856E1
1.252746786E0,2.932897024E-2,5.129576921E-1,1.008078671E1
1.254744599E0,1.975216344E-2,4.411316514E-1,9.831789017E0
1.256742359E0,-4.249707982E-2,3.884592354E-1,9.721655846E0
1.258740119E0,5.985504249E-4,6.135141850E-1,9.870096207E0
1.260737880E0,-1.238999367E-1,6.278793812E-1,9.817423820E0
1.262735640E0,-8.559270948E-2,7.475894690E-1,9.549273491E0
1.264733401E0,-1.909375787E-1,4.171896577E-1,9.410409927E0
1.266731161E0,-2.100912035E-1,3.597288132E-1,9.702502251E0
1.268728922E0,-1.526303589E-1,5.991489887E-1,9.937133789E0
1.270726682E0,-1.813607812E-1,8.200141042E-2,9.625887871E0
1.272724442E0,-1.430535465E-1,-4.249707982E-2,9.807847023E0
1.274722203E0,4.848258570E-2,3.549404144E-1,1.027232265E1
1.276719963E0,8.678980917E-2,6.805518270E-1,1.028189945E1
1.278717724E0,-1.376665942E-2,2.495955229E-1,9.870096207E0
1.280715484E0,7.242459804E-2,4.076128304E-1,9.812635422E0
1.282713244E0,7.242459804E-2,7.188590765E-1,9.769539833E0
1.284711005E0,3.411737457E-2,5.895721912E-1,9.549273491E0
1.286708817E0,-3.292027488E-2,3.357867897E-1,9.396044731E0
1.288706630E0,-2.053027898E-1,2.639607489E-1,9.716867447E0
1.290704442E0,-2.340332121E-1,3.836708367E-1,9.726444244E0
1.292702255E0,-1.526303589E-1,5.273229480E-1,9.683348656E0
1.294700067E0,-9.995792061E-2,6.326677799E-1,9.496601105E0
1.296697880E0,-3.010708690E-1,5.805939063E-2,9.252392769E0
1.298695692E0,-5.357026458E-1,-5.357026458E-1,9.625887871E0
1.300693505E0,-3.776853085E-1,-1.430535465E-1,1.011909389E1
1.302691317E0,-1.191115379E-1,4.315548539E-1,1.029626465E1
1.304689130E0,-1.047463268E-1,3.262099922E-1,9.999382973E0
1.306686942E0,-2.340332121E-1,1.586158574E-1,9.970652580E0
1.308684755E0,-2.388216257E-1,4.171896577E-1,9.970652580E0
1.310682567E0,-1.957259923E-1,4.985924959E-1,9.630676270E0
1.312680380E0,-2.675520480E-1,1.969230920E-1,9.448717117E0
1.314678192E0,-4.064157307E-1,1.634042710E-1,9.625887871E0
1.316675953E0,-4.351461530E-1,3.932476342E-1,9.812635422E0
1.318673505E0,-3.298012912E-1,3.405751884E-1,9.654618263E0
1.320671057E0,-3.824737072E-1,3.262099922E-1,9.898826599E0
1.322668609E0,-2.627636492E-1,5.560533404E-1,9.946710587E0
1.324666161E0,-3.154360652E-1,5.273229480E-1,9.846154213E0
1.326663713E0,-2.100912035E-1,6.183025837E-1,9.578003883E0
1.328661265E0,-2.100912035E-1,5.512649417E-1,9.673771858E0
1.330658869E0,-3.202244639E-1,4.938040972E-1,9.434351921E0
1.332656526E0,-3.728969097E-1,2.926911712E-1,9.491812706E0
1.334654234E0,-4.542997777E-1,1.975216344E-2,9.573215485E0
1.336651942E0,-5.452794433E-1,-2.100912035E-1,9.975440979E0
1.338649703E0,-3.872621357E-1,3.645172119E-1,1.021007347E1
1.340647463E0,-2.914940715E-1,3.740940094E-1,9.999382973E0
1.342645224E0,-3.633201122E-1,3.453635871E-1,9.961075783E0
1.344642984E0,-4.351461530E-1,3.070563674E-1,9.774328232E0
1.346640744E0,-5.213374496E-1,9.636662155E-2,9.515754700E0
1.348638140E0,-6.458359361E-1,-9.038111567E-2,9.568427086E0
1.350635484E0,-6.697779298E-1,1.203086376E-1,9.779116631E0
1.352632828E0,-5.692214370E-1,2.543839216E-1,9.793481827E0
1.354630172E0,-5.596446395E-1,5.805939063E-2,9.712079048E0
1.356627515E0,-5.261258483E-1,1.059434265E-1,9.831789017E0
1.358624859E0,-4.016273320E-1,3.022679687E-1,1.006642151E1
1.360622255E0,-4.207809567E-1,5.273229480E-1,1.028668785E1
1.362619703E0,-4.064157307E-1,7.332242727E-1,1.011909389E1
1.364617203E0,-4.159925580E-1,6.661866307E-1,9.726444244E0
1.366614755E0,-5.835866928E-1,1.586158574E-1,9.463082314E0
1.368612359E0,-7.368155718E-1,-1.669955701E-1,9.692925453E0
1.370610067E0,-5.835866928E-1,1.011550203E-1,1.003290176E1
1.372607828E0,-5.117605925E-1,-9.038111567E-2,9.850942612E0
1.374605640E0,-4.830302000E-1,5.386953708E-3,1.015740108E1
1.376603505E0,-4.782418013E-1,3.693056107E-1,1.005684471E1
1.378601422E0,-3.585317135E-1,5.608417392E-1,9.812635422E0
1.380599338E0,-4.159925580E-1,3.357867897E-1,9.573215485E0
1.382597255E0,-3.872621357E-1,5.081692934E-1,9.640253067E0
1.384595172E0,-3.537433147E-1,2.879027426E-1,9.616311073E0
1.386593088E0,-4.016273320E-1,4.369417951E-2,9.668983459E0
1.388590849E0,-4.399345517E-1,3.405751884E-1,9.860519409E0
1.390588557E0,-3.345896900E-1,7.044938207E-1,9.855731010E0
1.392586109E0,-2.819172442E-1,1.001374841E0,9.506177902E0
1.394583661E0,-2.962824702E-1,5.033808947E-1,8.941145897E0
1.396581213E0,-5.644330382E-1,-1.334767491E-1,9.065644264E0
1.398578765E0,-5.069721937E-1,-3.537433147E-1,9.410409927E0
1.400576213E0,-3.585317135E-1,2.064998895E-1,9.985017776E0
1.402573661E0,-1.909375787E-1,5.752069354E-1,9.764751434E0
1.404571109E0,-2.579752207E-1,4.028244317E-1,9.587580681E0
1.406568557E0,-2.819172442E-1,1.017535757E-2,9.558850288E0
1.408566005E0,-1.191115379E-1,1.346738487E-1,9.659406662E0
1.410563453E0,-8.559270948E-2,3.501519859E-1,9.673771858E0
1.412560901E0,-3.770867735E-2,4.219780564E-1,9.472659111E0
1.414558349E0,-1.238999367E-1,2.879027426E-1,9.429563522E0
1.416555849E0,-1.286883354E-1,3.357867897E-1,9.453505516E0
1.418553401E0,-1.765723825E-1,3.884592354E-1,9.472659111E0
1.420551005E0,-1.095347255E-1,3.693056107E-1,9.376891136E0
1.422548661E0,-1.669955701E-1,1.681926697E-1,9.429563522E0
1.424546369E0,-7.122749835E-2,3.645172119E-1,9.640253067E0
1.426544130E0,-3.292027488E-2,6.470330358E-1,9.616311073E0
1.428541942E0,1.496376097E-2,1.490390599E-1,9.391256332E0
1.430539807E0,-7.122749835E-2,-6.165069342E-2,9.870096207E0
1.432537724E0,-1.143231317E-1,4.746504724E-1,1.025316906E1
1.434535692E0,-1.855506375E-2,4.124012291E-1,1.009994030E1
1.436533713E0,3.890577704E-2,7.044938207E-1,9.908403397E0
1.438531786E0,-6.643909961E-2,4.124012291E-1,9.860519409E0
1.440529859E0,-2.813187055E-2,7.140706778E-1,9.850942612E0
1.442527932E0,3.411737457E-2,8.768763542E-1,9.343372345E0
1.444526005E0,5.805939063E-2,9.247604012E-1,9.515754700E0
1.446524078E0,-6.643909961E-2,6.518214345E-1,9.721655846E0
1.448522047E0,-4.249707982E-2,7.715315223E-1,9.827000618E0
1.450519963E0,2.932897024E-2,1.087566137E0,9.961075783E0
1.452517724E0,1.203086376E-1,1.197699428E0,9.654618263E0
1.454515484E0,7.242459804E-2,8.289923668E-1,9.534908295E0
1.456513244E0,5.805939063E-2,7.619546652E-1,9.692925453E0
1.458511005E0,1.017535757E-2,5.512649417E-1,9.922768593E0
1.460508765E0,6.284779310E-2,6.901286244E-1,1.006642151E1
1.462506526E0,9.636662155E-2,9.199720025E-1,9.956287384E0
1.464504286E0,-1.376665942E-2,1.001374841E0,9.736021042E0
1.466502047E0,-1.909375787E-1,1.825578809E-1,9.194931984E0
1.468499807E0,-3.824737072E-1,-2.436100245E-1,9.683348656E0
1.470497567E0,-3.489548862E-1,7.242459804E-2,9.917980194E0
1.472495328E0,-1.861491799E-1,5.273229480E-1,1.007120991E1
1.474493088E0,1.496376097E-2,4.171896577E-1,9.898826599E0
1.476490849E0,-1.238999367E-1,4.890156984E-1,9.860519409E0
1.478488609E0,-4.249707982E-2,8.577227592E-1,9.597157478E0
1.480486369E0,-1.855506375E-2,6.949170232E-1,9.309853554E0
1.482484078E0,-9.038111567E-2,1.490390599E-1,9.597157478E0
1.484481682E0,-8.559270948E-2,5.327098817E-2,1.032978344E1
1.486479286E0,-1.286883354E-1,3.884592354E-1,1.080383492E1
1.488476890E0,1.203086376E-1,1.121084929E0,1.021007347E1
1.490474494E0,2.112883031E-1,8.529343605E-1,9.515754700E0
1.492472099E0,-5.686229095E-2,9.157821536E-2,9.376891136E0
1.494469703E0,-8.978256024E-3,5.416881442E-1,9.463082314E0
1.496467307E0,-9.516951442E-2,5.081692934E-1,9.803058624E0
1.498464911E0,-6.643909961E-2,6.470330358E-1,9.879673004E0
1.500462567E0,-1.574187577E-1,5.847837925E-1,9.578003883E0
1.502460276E0,-4.249707982E-2,5.847837925E-1,9.573215485E0
1.504458036E0,-1.334767491E-1,5.225345492E-1,9.544485092E0
1.506455797E0,-2.244564146E-1,2.352303118E-1,9.707290649E0
1.508453557E0,-3.202244639E-1,1.203086376E-1,1.012388229E1
1.510451317E0,-3.441664875E-1,4.650736749E-1,9.846154213E0
1.512449078E0,-3.106476665E-1,4.890156984E-1,9.424775124E0
1.514446838E0,-3.058592677E-1,3.309983909E-1,9.870096207E0
1.516444599E0,-4.207809567E-1,1.586158574E-1,9.702502251E0
1.518442359E0,-4.734533727E-1,-3.292027488E-2,9.913191795E0
1.520440119E0,-6.027402878E-1,-5.207388848E-2,1.011430550E1
1.522437880E0,-3.920505345E-1,5.608417392E-1,1.023401546E1
1.524435640E0,-5.117605925E-1,1.634042710E-1,9.961075783E0
1.526433401E0,-4.064157307E-1,-7.601590455E-2,9.985017776E0
1.528431161E0,-3.872621357E-1,4.602852762E-1,1.020528507E1
1.530428922E0,-4.447229803E-1,5.321113467E-1,1.000895977E1
1.532426682E0,-4.590881765E-1,6.901286244E-1,9.314641953E0
1.534424442E0,-3.776853085E-1,6.661866307E-1,9.161413193E0
1.536422203E0,-3.585317135E-1,2.591723204E-1,9.051279068E0
1.538420015E0,-3.441664875E-1,4.650736749E-1,9.836577415E0
1.540417880E0,-3.537433147E-1,6.039373875E-1,1.023401546E1
1.542415744E0,-2.053027898E-1,-9.038111567E-2,9.812635422E0
1.544413609E0,-2.292448133E-1,-3.537433147E-1,9.453505516E0
1.546411474E0,-1.238999367E-1,1.250970364E-1,1.032499504E1
1.548409338E0,7.721300423E-2,7.811083198E-1,1.029147625E1
1.550407203E0,-3.292027488E-2,3.118447661E-1,9.554061890E0
1.552405067E0,-3.058592677E-1,-1.430535465E-1,9.190143585E0
1.554402776E0,-2.483984232E-1,3.501519859E-1,9.798270226E0
1.556400432E0,-2.579752207E-1,5.416881442E-1,9.544485092E0
1.558397880E0,-3.968389332E-1,-1.717839688E-1,9.908403397E0
1.560395172E0,-3.633201122E-1,-4.189853091E-3,9.769539833E0
1.562392463E0,-2.962824702E-1,1.975216344E-2,9.836577415E0
1.564389755E0,-1.669955701E-1,3.262099922E-1,9.860519409E0
1.566387047E0,-1.047463268E-1,1.729810685E-1,1.007599831E1
1.568384338E0,-2.483984232E-1,2.208651006E-1,9.573215485E0
1.570381630E0,-2.627636492E-1,-2.483984232E-1,9.477447510E0
1.572378974E0,-2.771288455E-1,-3.058592677E-1,9.750386238E0
1.574376369E0,-2.436100245E-1,4.315548539E-1,1.023401546E1
1.576373817E0,-3.106476665E-1,8.146271110E-1,9.817423820E0
1.578371317E0,-1.957259923E-1,2.974795699E-1,9.405621529E0
1.580368869E0,-2.436100245E-1,-3.728969097E-1,8.917203903E0
1.582366474E0,-2.579752207E-1,-7.272387743E-1,9.736021042E0
1.584364130E0,-2.005143911E-1,-2.196680009E-1,1.054047298E1
1.586361838E0,-6.165069342E-2,4.124012291E-1,1.066975975E1
1.588359599E0,-4.249707982E-2,7.475894690E-1,1.000895977E1
1.590357411E0,-1.238999367E-1,4.124012291E-1,9.166201591E0
1.592355276E0,-1.526303589E-1,4.848258570E-2,9.242815971E0
1.594353192E0,-1.765723825E-1,-7.601590455E-2,9.156624794E0
1.596351109E0,-9.038111567E-2,-3.292027488E-2,9.592369080E0
1.598349026E0,2.454056777E-2,4.076128304E-1,1.031062984E1
1.600346942E0,9.636662155E-2,7.715315223E-1,1.016697788E1
1.602344859E0,1.298854351E-1,3.836708367E-1,9.554061890E0
1.604342776E0,1.975216344E-2,-5.207388848E-2,9.664195061E0
1.606340692E0,-1.143231317E-1,-2.813187055E-2,9.712079048E0
1.608338609E0,-1.430535465E-1,2.495955229E-1,9.554061890E0
1.610336317E0,-3.770867735E-2,-1.191115379E-1,9.649829865E0
1.612334026E0,-4.249707982E-2,-1.855506375E-2,1.005684471E1
1.614331369E0,-9.995792061E-2,6.763619930E-2,1.005684471E1
1.616328713E0,-1.286883354E-1,-8.080431074E-2,9.798270226E0
1.618326057E0,-2.675520480E-1,-5.686229095E-2,9.305065155E0
1.620323401E0,-2.771288455E-1,1.017535757E-2,9.305065155E0
1.622320744E0,-1.717839688E-1,2.400187254E-1,9.630676270E0
1.624318088E0,-9.995792061E-2,1.442506462E-1,9.712079048E0
1.626315432E0,-1.669955701E-1,-2.813187055E-2,9.707290649E0
1.628312776E0,-2.483984232E-1,-3.292027488E-2,1.000895977E1
1.630310172E0,-2.053027898E-1,4.369417951E-2,1.005684471E1
1.632307619E0,-2.196680009E-1,2.639607489E-1,1.023401546E1
1.634305119E0,-1.813607812E-1,4.267664552E-1,9.870096207E0
1.636302672E0,-3.010708690E-1,1.017535757E-2,9.233239174E0
1.638300276E0,-3.058592677E-1,-1.861491799E-1,9.405621529E0
1.640297932E0,-1.765723825E-1,4.363432527E-1,1.024838066E1
1.642295640E0,-1.191115379E-1,5.704185367E-1,1.018134308E1
1.644293401E0,-1.765723825E-1,5.991489887E-1,9.898826599E0
1.646291213E0,-2.292448133E-1,3.166331649E-1,9.352949142E0
1.648289078E0,-1.861491799E-1,3.411737457E-2,9.156624794E0
1.650286994E0,-7.601590455E-2,5.608417392E-1,1.005684471E1
1.652284963E0,1.975216344E-2,9.439139962E-1,1.007120991E1
1.654282932E0,8.200141042E-2,7.188590765E-1,9.530119896E0
1.656280901E0,-5.686229095E-2,4.363432527E-1,9.549273491E0
1.658278869E0,-8.559270948E-2,4.746504724E-1,9.798270226E0
1.660276838E0,-7.601590455E-2,5.943605900E-1,1.013824749E1
1.662274755E0,-9.516951442E-2,5.799953341E-1,9.941922188E0
1.664272463E0,-8.559270948E-2,7.092822790E-1,9.712079048E0
1.666270172E0,-1.334767491E-1,4.842272997E-1,8.969876289E0
1.668267880E0,-1.382651478E-1,3.890577704E-2,8.941145897E0
1.670265536E0,-1.478419602E-1,-3.770867735E-2,9.659406662E0
1.672263192E0,-2.813187055E-2,5.386953708E-3,1.022922707E1
1.674260849E0,-4.249707982E-2,4.890156984E-1,1.061229897E1
1.676258505E0,4.848258570E-2,5.608417392E-1,1.028668785E1
1.678256161E0,1.017535757E-2,4.124012291E-1,9.712079048E0
1.680253817E0,-1.622071713E-1,3.932476342E-1,9.496601105E0
1.682251474E0,-2.531868219E-1,4.124012291E-1,9.458293915E0
1.684249130E0,-8.080431074E-2,5.033808947E-1,9.515754700E0
1.686246786E0,-4.728548229E-2,6.326677799E-1,9.592369080E0
1.688244442E0,-5.686229095E-2,4.794389009E-1,9.506177902E0
1.690242099E0,4.848258570E-2,5.799953341E-1,9.793481827E0
1.692239755E0,2.017114908E-1,7.619546652E-1,9.999382973E0
1.694237411E0,2.256535143E-1,7.475894690E-1,9.659406662E0
1.696235067E0,1.490390599E-1,5.608417392E-1,9.410409927E0
1.698232724E0,1.155202314E-1,2.352303118E-1,9.080010414E0
1.700230380E0,1.298854351E-1,1.634042710E-1,9.563638687E0
1.702228036E0,1.059434265E-1,2.543839216E-1,1.008557510E1
1.704225692E0,1.634042710E-1,3.890577704E-2,1.007599831E1
1.706223349E0,1.538274586E-1,2.448071241E-1,1.061708736E1
1.708221005E0,5.327098817E-2,3.070563674E-1,1.034893703E1
1.710218661E0,-1.855506375E-2,3.405751884E-1,9.956287384E0
1.712216265E0,-7.601590455E-2,4.028244317E-1,9.740809441E0
1.714213661E0,-1.478419602E-1,4.028244317E-1,9.621099472E0
1.716211057E0,-1.574187577E-1,4.411316514E-1,9.487024307E0
1.718208453E0,-1.574187577E-1,4.698620737E-1,9.578003883E0
1.720205849E0,-6.643909961E-2,5.033808947E-1,9.587580681E0
1.722203244E0,5.386953708E-3,4.602852762E-1,9.544485092E0
1.724200640E0,5.985504249E-4,6.284779310E-2,9.482235909E0
1.726198036E0,-5.207388848E-2,3.980360329E-1,1.021486187E1
1.728195432E0,8.678980917E-2,3.836708367E-1,1.000895977E1
1.730192828E0,1.496376097E-2,3.022679687E-1,9.692925453E0
1.732190224E0,1.394622475E-1,3.788824081E-1,9.544485092E0
1.734187619E0,2.454056777E-2,3.884592354E-1,9.458293915E0
1.736185015E0,1.346738487E-1,2.591723204E-1,9.415198326E0
1.738182411E0,1.681926697E-1,1.107318252E-1,9.668983459E0
1.740179859E0,1.921346933E-1,2.304419130E-1,1.015740108E1
1.742177359E0,2.448071241E-1,3.405751884E-1,1.011430550E1
1.744174911E0,2.543839216E-1,1.681926697E-1,9.961075783E0
1.746172515E0,2.831143439E-1,3.740940094E-1,1.008557510E1
1.748170172E0,2.160767019E-1,5.464765429E-1,1.003769016E1
1.750167880E0,2.208651006E-1,7.763199210E-1,9.649829865E0
1.752165640E0,1.921346933E-1,7.763199210E-1,9.022548676E0
1.754163453E0,1.107318252E-1,4.842272997E-1,9.017760277E0
1.756161317E0,4.848258570E-2,3.884592354E-1,9.285911560E0
1.758159182E0,1.298854351E-1,2.831143439E-1,9.520543098E0
1.760157047E0,2.256535143E-1,1.203086376E-1,9.846154213E0
1.762154911E0,2.639607489E-1,2.017114908E-1,1.039203262E1
1.764152776E0,2.879027426E-1,4.554968774E-1,1.052131939E1
1.766150640E0,3.022679687E-1,4.698620737E-1,9.951498985E0
1.768148505E0,1.298854351E-1,3.597288132E-1,9.439140320E0
1.770146369E0,1.059434265E-1,3.645172119E-1,9.300276756E0
1.772144234E0,1.203086376E-1,3.788824081E-1,9.616311073E0
1.774142099E0,9.157821536E-2,3.645172119E-1,9.874884605E0
1.776139911E0,1.975216344E-2,2.352303118E-1,9.855731010E0
1.778137724E0,7.242459804E-2,1.490390599E-1,9.774328232E0
1.780135432E0,2.932897024E-2,4.267664552E-1,9.870096207E0
1.782133140E0,1.496376097E-2,3.980360329E-1,9.913191795E0
1.784130849E0,1.442506462E-1,4.315548539E-1,9.946710587E0
1.786128557E0,1.059434265E-1,3.740940094E-1,9.946710587E0
1.788126265E0,5.985504249E-4,5.512649417E-1,1.012867069E1
1.790123974E0,5.805939063E-2,5.752069354E-1,9.554061890E0
1.792121682E0,-8.080431074E-2,1.155202314E-1,9.209297180E0
1.794119390E0,-4.249707982E-2,3.022679687E-1,9.774328232E0
1.796117099E0,8.678980917E-2,6.135141850E-1,9.965864182E0
1.798114807E0,1.059434265E-1,7.858967185E-1,9.544485092E0
1.800112515E0,5.327098817E-2,3.884592354E-1,8.989029884E0
1.802110224E0,-1.376665942E-2,-9.516951442E-2,9.142259598E0
1.804107932E0,-3.770867735E-2,-1.382651478E-1,9.961075783E0
1.806105640E0,1.346738487E-1,1.777694821E-1,1.059793377E1
1.808103349E0,9.157821536E-2,1.729810685E-1,1.043991661E1
1.810101057E0,1.059434265E-1,2.400187254E-1,1.016697788E1
1.812098765E0,-1.855506375E-2,5.129576921E-1,9.879673004E0
1.814096474E0,-4.189853091E-3,5.368997455E-1,9.285911560E0
1.816094182E0,-1.430535465E-1,5.033808947E-1,9.204508781E0
1.818091890E0,-8.559270948E-2,6.853402257E-1,9.410409927E0
1.820089599E0,5.985504249E-4,5.273229480E-1,9.429563522E0
1.822087307E0,1.346738487E-1,3.836708367E-1,9.716867447E0
1.824085015E0,1.634042710E-1,3.836708367E-1,1.027232265E1
1.826082724E0,1.059434265E-1,2.926911712E-1,1.008078671E1
1.828080432E0,4.848258570E-2,2.591723204E-1,9.913191795E0
1.830078140E0,1.777694821E-1,2.448071241E-1,9.712079048E0
1.832075849E0,9.636662155E-2,3.405751884E-1,9.731232643E0
1.834073557E0,1.250970364E-1,3.166331649E-1,9.396044731E0
1.836071265E0,4.848258570E-2,3.980360329E-1,9.692925453E0
1.838068974E0,2.256535143E-1,5.991489887E-1,9.922768593E0
1.840066682E0,2.543839216E-1,6.087257862E-1,9.774328232E0
1.842064390E0,2.208651006E-1,6.949170232E-1,9.922768593E0
1.844062099E0,8.678980917E-2,3.932476342E-1,9.803058624E0
1.846059807E0,-2.334346622E-2,2.208651006E-1,1.008078671E1
1.848057463E0,-1.376665942E-2,2.687491477E-1,1.009994030E1
1.850055119E0,-2.334346622E-2,3.884592354E-1,1.053568459E1
1.852052776E0,2.454056777E-2,9.487023950E-1,1.001374817E1
1.854050432E0,-1.382651478E-1,5.847837925E-1,8.740033150E0
1.856048088E0,-3.441664875E-1,1.155202314E-1,8.438364029E0
1.858045744E0,-2.483984232E-1,1.298854351E-1,9.080010414E0
1.860043401E0,5.386953708E-3,2.112883031E-1,9.822212219E0
1.862041057E0,-8.978256024E-3,4.076128304E-1,1.036330223E1
1.864038713E0,3.890577704E-2,1.490390599E-1,9.941922188E0
1.866036369E0,-1.376665942E-2,1.729810685E-1,9.989806175E0
1.868034026E0,-5.207388848E-2,3.549404144E-1,1.024838066E1
1.870031682E0,-1.334767491E-1,3.788824081E-1,9.860519409E0
1.872029338E0,-3.250128925E-1,9.157821536E-2,9.496601105E0
1.874026994E0,-3.920505345E-1,-1.717839688E-1,9.769539833E0
1.876024703E0,-3.968389332E-1,1.155202314E-1,1.022443867E1
1.878022463E0,-2.579752207E-1,5.752069354E-1,1.024838066E1
1.880020276E0,-2.388216257E-1,3.836708367E-1,9.568427086E0
1.882018088E0,-2.867056429E-1,3.309983909E-1,9.209297180E0
1.884015901E0,-2.483984232E-1,2.974795699E-1,9.544485092E0
1.886013713E0,-2.053027898E-1,2.543839216E-1,9.817423820E0
1.888011526E0,-6.643909961E-2,3.549404144E-1,9.874884605E0
1.890009338E0,-2.813187055E-2,3.788824081E-1,9.774328232E0
1.892007151E0,5.985504249E-4,9.157821536E-2,9.530119896E0
1.894004963E0,-9.038111567E-2,-1.855506375E-2,9.544485092E0
1.896002776E0,-6.643909961E-2,5.386953708E-3,9.745597839E0
1.898000380E0,-1.376665942E-2,1.250970364E-1,9.841365814E0
1.899997776E0,5.985504249E-4,2.783259451E-1,9.846154213E0
1.901995172E0,3.890577704E-2,1.059434265E-1,9.491812706E0
1.903992567E0,-2.334346622E-2,6.284779310E-2,9.510966301E0
1.905989963E0,5.805939063E-2,3.890577704E-2,9.793481827E0
1.907987411E0,1.975216344E-2,2.304419130E-1,9.836577415E0
1.909984911E0,2.932897024E-2,2.495955229E-1,9.621099472E0
1.911982463E0,9.157821536E-2,4.507084787E-1,9.692925453E0
1.913980067E0,1.394622475E-1,3.166331649E-1,9.563638687E0
1.915977724E0,6.284779310E-2,2.112883031E-1,9.525331497E0
1.917975432E0,5.327098817E-2,3.836708367E-1,9.831789017E0
1.919973192E0,1.873462796E-1,1.921346933E-1,9.937133789E0
1.921971005E0,-1.191115379E-1,-5.055955410E0,1.187643719E1
1.923968817E0,1.921346933E-1,-8.565256596E-1,1.543900967E1
1.925966630E0,6.805518270E-1,3.419518471E0,1.265215874E1
1.927964442E0,4.411316514E-1,3.304596901E0,9.726444244E0
1.929962255E0,5.805939063E-2,3.146579504E0,6.958747387E0
1.931960067E0,-3.250128925E-1,2.777872562E0,5.440823555E0
1.933957880E0,-6.602011323E-1,2.184110403E0,5.220556736E0
1.935955692E0,-6.602011323E-1,1.437119603E0,5.675455093E0
1.937953505E0,-5.596446395E-1,6.613982320E-1,6.417657852E0
1.939951317E0,-6.697779298E-1,-1.459864497E0,6.259640217E0
1.941949130E0,-7.224503756E-1,-4.476558685E0,8.936357498E0
1.943946942E0,3.214215636E-1,-2.211643934E0,1.440950298E1
1.945944755E0,1.236006618E0,-9.038111567E-2,1.565927601E1
1.947942567E0,1.350928307E0,3.453635871E-1,1.410783386E1
1.949940119E0,1.116296530E0,3.693056107E-1,1.123479176E1
1.951937672E0,5.943605900E-1,4.650736749E-1,1.035372543E1
1.953935224E0,2.352303118E-1,1.087566137E0,1.013345909E1
1.955932776E0,-1.376665942E-2,1.734000564E0,9.530119896E0
1.957930328E0,-2.053027898E-1,1.882441044E0,8.658630371E0
1.959927932E0,-5.165489912E-1,1.326986313E0,8.328230858E0
1.961925588E0,-6.649895310E-1,6.087257862E-1,8.677783966E0
1.963923297E0,-5.692214370E-1,4.746504724E-1,9.319430351E0
1.965921057E0,-4.542997777E-1,2.831143439E-1,9.788693428E0
1.967918817E0,-3.250128925E-1,1.155202314E-1,1.007120991E1
1.969916578E0,-1.574187577E-1,5.704185367E-1,9.673771858E0
1.971914338E0,-1.095347255E-1,3.980360329E-1,8.936357498E0
1.973912099E0,-1.669955701E-1,-3.058592677E-1,9.008183479E0
1.975909859E0,-1.047463268E-1,-1.622071713E-1,9.563638687E0
1.977907619E0,1.538274586E-1,2.160767019E-1,1.010472870E1
1.979905380E0,2.495955229E-1,3.740940094E-1,1.013345909E1
1.981903140E0,2.879027426E-1,3.411737457E-2,1.037287903E1
1.983900901E0,2.304419130E-1,-2.483984232E-1,1.057399178E1
1.985898661E0,2.304419130E-1,1.777694821E-1,1.047822380E1
1.987896422E0,1.969230920E-1,2.448071241E-1,1.012867069E1
1.989894182E0,8.678980917E-2,2.112883031E-1,9.836577415E0
1.991891942E0,1.017535757E-2,1.011550203E-1,9.611522675E0
1.993889703E0,-5.207388848E-2,2.256535143E-1,1.016218948E1
1.995887463E0,-7.122749835E-2,4.794389009E-1,9.688137054E0
1.997885224E0,-6.643909961E-2,5.225345492E-1,9.247604370E0
1.999883036E0,-1.622071713E-1,3.501519859E-1,9.161413193E0
2.001880901E0,-1.574187577E-1,2.256535143E-1,9.381679535E0
2.003878817E0,-4.249707982E-2,2.112883031E-1,9.539696693E0
2.005876786E0,2.454056777E-2,3.405751884E-1,9.549273491E0
2.007874755E0,8.678980917E-2,3.549404144E-1,9.405621529E0
2.009872724E0,8.200141042E-2,-5.207388848E-2,9.980229378E0
2.011870692E0,1.250970364E-1,-9.516951442E-2,1.008557510E1
2.013868661E0,2.017114908E-1,2.064998895E-1,9.774328232E0
2.015866526E0,2.208651006E-1,3.836708367E-1,9.194931984E0
2.017864182E0,2.160767019E-1,2.400187254E-1,9.352949142E0
2.019861838E0,1.873462796E-1,-8.613140583E-1,1.145984650E1
2.021859494E0,1.490390599E-1,-2.962824702E-1,1.068412495E1
2.023857151E0,1.250970364E-1,4.219780564E-1,9.214085579E0
2.025854807E0,9.636662155E-2,4.698620737E-1,9.022548676E0
2.027852359E0,1.496376097E-2,1.394622475E-1,9.558850288E0
2.029849807E0,1.017535757E-2,-1.286883354E-1,1.017176628E1
2.031847255E0,-6.643909961E-2,1.825578809E-1,9.032125473E0
2.033844703E0,-1.478419602E-1,8.200141042E-2,9.046490669E0
2.035842151E0,-1.669955701E-1,-1.334767491E-1,9.214085579E0
2.037839599E0,-1.669955701E-1,-8.080431074E-2,9.525331497E0
2.039837047E0,-7.122749835E-2,-7.122749835E-2,1.007120991E1
2.041834547E0,5.985504249E-4,-8.080431074E-2,9.980229378E0
2.043832047E0,-4.189853091E-3,6.763619930E-2,9.860519409E0
2.045829547E0,-8.978256024E-3,-2.813187055E-2,9.994594574E0
2.047827047E0,-4.189853091E-3,-9.995792061E-2,9.544485092E0
2.049824547E0,-5.207388848E-2,-3.920505345E-1,9.937133789E0
2.051822047E0,-1.855506375E-2,-1.957259923E-1,9.937133789E0
2.053819547E0,1.496376097E-2,1.155202314E-1,9.578003883E0
2.055817047E0,1.011550203E-1,1.298854351E-1,9.870096207E0
2.057814599E0,1.203086376E-1,1.250970364E-1,9.798270226E0
2.059812203E0,1.490390599E-1,1.777694821E-1,9.678560257E0
2.061809807E0,1.729810685E-1,3.118447661E-1,9.443928719E0
2.063807411E0,1.250970364E-1,1.681926697E-1,9.319430351E0
2.065805015E0,1.394622475E-1,-1.430535465E-1,9.736021042E0
2.067802619E0,7.242459804E-2,-9.995792061E-2,9.879673004E0
2.069800224E0,1.155202314E-1,1.155202314E-1,9.645041466E0
2.071797828E0,1.825578809E-1,2.208651006E-1,9.668983459E0
2.073795432E0,2.112883031E-1,-2.436100245E-1,1.023880386E1
2.075793036E0,2.160767019E-1,-2.531868219E-1,1.057399178E1
2.077790640E0,2.352303118E-1,-9.516951442E-2,9.999382973E0
2.079788297E0,1.921346933E-1,1.825578809E-1,9.549273491E0
2.081786005E0,1.825578809E-1,6.763619930E-2,9.295488358E0
2.083783765E0,8.200141042E-2,-1.478419602E-1,9.419986725E0
2.085781578E0,1.059434265E-1,-2.579752207E-1,9.803058624E0
2.087779390E0,1.586158574E-1,-1.909375787E-1,9.965864182E0
2.089777203E0,1.586158574E-1,-2.436100245E-1,9.889249802E0
2.091775015E0,1.394622475E-1,-2.627636492E-1,9.870096207E0
2.093772828E0,7.242459804E-2,1.975216344E-2,9.443928719E0
2.095770640E0,1.107318252E-1,4.076128304E-1,9.281123161E0
2.097768453E0,6.763619930E-2,2.783259451E-1,9.257181168E0
2.099766265E0,-8.978256024E-3,-1.047463268E-1,9.515754700E0
2.101764078E0,-5.686229095E-2,-5.883750916E-1,1.010951710E1
2.103761890E0,-7.601590455E-2,-3.585317135E-1,1.007599831E1
2.105759651E0,-6.643909961E-2,1.346738487E-1,9.372102737E0
2.107757411E0,-2.334346622E-2,5.985504249E-4,9.917980194E0
2.109755172E0,1.496376097E-2,-2.483984232E-1,1.023401546E1
2.111752932E0,-4.728548229E-2,-8.559270948E-2,9.779116631E0
2.113750692E0,-6.643909961E-2,-5.686229095E-2,9.970652580E0
2.115748453E0,-6.165069342E-2,1.777694821E-1,9.506177902E0
2.117746213E0,-2.813187055E-2,1.496376097E-2,9.946710587E0
2.119743974E0,-4.249707982E-2,2.454056777E-2,1.010951710E1
2.121741734E0,-3.770867735E-2,2.256535143E-1,9.817423820E0
2.123739494E0,-7.122749835E-2,2.831143439E-1,9.352949142E0
2.125737255E0,-1.717839688E-1,3.453635871E-1,9.396044731E0
2.127735015E0,-3.770867735E-2,5.752069354E-1,9.539696693E0
2.129732776E0,-4.249707982E-2,5.321113467E-1,9.558850288E0
2.131730536E0,-6.643909961E-2,7.242459804E-2,9.707290649E0
2.133728297E0,-6.643909961E-2,4.369417951E-2,1.050216579E1
2.135726057E0,-3.770867735E-2,2.304419130E-1,1.011909389E1
2.137723869E0,-1.855506375E-2,5.321113467E-1,9.894038200E0
2.139721734E0,-2.334346622E-2,3.549404144E-1,9.688137054E0
2.141719651E0,-1.047463268E-1,-5.686229095E-2,1.001853657E1
2.143717619E0,-1.765723825E-1,-2.388216257E-1,1.033936024E1
2.145715640E0,-1.238999367E-1,1.538274586E-1,1.006642151E1
2.147713713E0,-1.382651478E-1,2.352303118E-1,9.846154213E0
2.149711786E0,-1.574187577E-1,4.650736749E-1,9.166201591E0
2.151709859E0,-2.244564146E-1,2.208651006E-1,8.787917137E0
2.153707932E0,-1.909375787E-1,-1.238999367E-1,8.902838707E0
2.155706005E0,-4.249707982E-2,1.011550203E-1,9.300276756E0
2.157704078E0,1.298854351E-1,1.681926697E-1,9.405621529E0
2.159702151E0,1.729810685E-1,5.805939063E-2,9.659406662E0
2.161700224E0,3.118447661E-1,-7.601590455E-2,1.030584145E1
2.163698297E0,3.932476342E-1,-3.770867735E-2,1.062187576E1
2.165696369E0,3.836708367E-1,1.155202314E-1,1.042555141E1
2.167694390E0,2.974795699E-1,2.639607489E-1,9.601945877E0
2.169691994E0,2.735375464E-1,5.943605900E-1,9.089587212E0
2.171689599E0,1.873462796E-1,3.740940094E-1,9.453505516E0
2.173687203E0,2.591723204E-1,1.681926697E-1,1.009994030E1
2.175684807E0,2.208651006E-1,4.650736749E-1,9.506177902E0
2.177682411E0,2.974795699E-1,5.273229480E-1,9.812635422E0
2.179680015E0,2.352303118E-1,5.416881442E-1,9.956287384E0
2.181677619E0,2.256535143E-1,4.076128304E-1,9.750386238E0
2.183675224E0,1.634042710E-1,2.591723204E-1,9.850942612E0
2.185672880E0,9.636662155E-2,4.602852762E-1,9.568427086E0
2.187670588E0,1.586158574E-1,6.087257862E-1,9.616311073E0
2.189668349E0,1.825578809E-1,6.470330358E-1,9.664195061E0
2.191666161E0,1.586158574E-1,6.613982320E-1,9.525331497E0
2.193664026E0,1.203086376E-1,3.357867897E-1,9.539696693E0
2.195661942E0,1.490390599E-1,5.327098817E-2,1.030105305E1
2.197659911E0,1.921346933E-1,3.501519859E-1,1.031541824E1
2.199657932E0,1.490390599E-1,5.368997455E-1,9.879673004E0
2.201656005E0,1.873462796E-1,5.847837925E-1,9.908403397E0
2.203654078E0,1.921346933E-1,2.495955229E-1,1.015261269E1
2.205652151E0,1.298854351E-1,3.166331649E-1,1.030584145E1
2.207650224E0,1.825578809E-1,5.895721912E-1,1.005205631E1
2.209648297E0,2.208651006E-1,7.236474752E-1,9.678560257E0
2.211646369E0,1.394622475E-1,9.678560495E-1,9.477447510E0
2.213644442E0,7.721300423E-2,9.439139962E-1,8.993818283E0
2.215642151E0,1.496376097E-2,7.954735160E-1,8.931569099E0
2.217639859E0,5.327098817E-2,6.757634282E-1,9.539696693E0
2.219637567E0,1.346738487E-1,8.098387122E-1,9.410409927E0
2.221635276E0,1.634042710E-1,7.954735160E-1,9.539696693E0
2.223632984E0,1.394622475E-1,5.321113467E-1,9.448717117E0
2.225630692E0,6.284779310E-2,8.200141042E-2,1.012388229E1
2.227628401E0,1.586158574E-1,3.070563674E-1,1.056920338E1
2.229626109E0,1.634042710E-1,3.693056107E-1,1.069370174E1
2.231623817E0,5.327098817E-2,4.554968774E-1,1.030584145E1
2.233621578E0,5.386953708E-3,5.512649417E-1,9.712079048E0
2.235619390E0,-1.095347255E-1,5.704185367E-1,9.520543098E0
2.237617255E0,-1.622071713E-1,6.518214345E-1,9.391256332E0
2.239615172E0,-1.861491799E-1,7.906851172E-1,9.060855865E0
2.241613140E0,-1.957259923E-1,5.847837925E-1,8.577227592E0
2.243611161E0,-2.196680009E-1,-3.058592677E-1,9.989806175E0
2.245609234E0,-6.643909961E-2,2.448071241E-1,1.085171890E1
2.247607307E0,1.777694821E-1,6.230909824E-1,1.028668785E1
2.249605432E0,1.825578809E-1,7.523778677E-1,9.271546364E0
2.251603609E0,9.157821536E-2,4.698620737E-1,8.878896713E0
2.253601838E0,1.975216344E-2,-8.978256024E-3,9.309853554E0
2.255600067E0,6.284779310E-2,6.763619930E-2,1.012867069E1
2.257598297E0,1.969230920E-1,2.783259451E-1,1.012867069E1
2.259596005E0,2.064998895E-1,2.064998895E-1,9.736021042E0
2.261593713E0,1.634042710E-1,-2.813187055E-2,1.026274586E1
2.263591422E0,1.729810685E-1,1.969230920E-1,1.030584145E1
2.265589130E0,2.208651006E-1,6.757634282E-1,9.635464668E0
2.267586838E0,1.059434265E-1,5.608417392E-1,9.424775124E0
2.269584547E0,-5.686229095E-2,1.681926697E-1,9.510966301E0
2.271582255E0,-1.191115379E-1,4.369417951E-2,9.807847023E0
2.273579963E0,-1.238999367E-1,1.203086376E-1,1.001853657E1
2.275577672E0,-5.686229095E-2,3.693056107E-1,9.549273491E0
2.277575432E0,-4.249707982E-2,1.155202314E-1,9.941922188E0
2.279573244E0,-5.207388848E-2,-4.189853091E-3,9.764751434E0
2.281571109E0,1.975216344E-2,2.400187254E-1,9.472659111E0
2.283569026E0,3.890577704E-2,-1.286883354E-1,9.941922188E0
2.285566994E0,8.200141042E-2,-2.244564146E-1,9.894038200E0
2.287564963E0,6.763619930E-2,-1.717839688E-1,9.827000618E0
2.289562932E0,1.394622475E-1,1.017535757E-2,9.621099472E0
2.291560901E0,1.586158574E-1,1.107318252E-1,9.855731010E0
2.293558869E0,1.250970364E-1,-8.559270948E-2,1.005205631E1
2.295556578E0,1.586158574E-1,5.327098817E-2,9.956287384E0
2.297554286E0,8.678980917E-2,1.873462796E-1,9.889249802E0
2.299551994E0,8.200141042E-2,1.634042710E-1,9.501389503E0
2.301549703E0,1.975216344E-2,-1.669955701E-1,1.018134308E1
2.303547411E0,-4.728548229E-2,-5.207388848E-2,1.007120991E1
2.305545119E0,5.985504249E-4,4.602852762E-1,9.084798813E0
2.307542619E0,-1.855506375E-2,3.118447661E-1,9.185355186E0
2.309540119E0,-6.643909961E-2,5.985504249E-4,9.707290649E0
2.311537619E0,-3.770867735E-2,-2.436100245E-1,9.846154213E0
2.313535119E0,5.985504249E-4,-3.202244639E-1,1.000895977E1
2.315532619E0,5.805939063E-2,8.200141042E-2,9.400833130E0
2.317530119E0,8.200141042E-2,1.155202314E-1,9.338583946E0
2.319527619E0,5.805939063E-2,-1.909375787E-1,9.860519409E0
2.321525119E0,6.763619930E-2,-3.441664875E-1,1.009515190E1
2.323522672E0,5.985504249E-4,-4.734533727E-1,1.013345909E1
2.325520276E0,-3.292027488E-2,-1.430535465E-1,9.783905029E0
2.327517932E0,-1.191115379E-1,1.346738487E-1,8.711302757E0
2.329515640E0,-1.238999367E-1,5.805939063E-2,9.214085579E0
2.331513401E0,-1.238999367E-1,-1.574187577E-1,9.980229378E0
2.333511213E0,-2.813187055E-2,-1.095347255E-1,9.937133789E0
2.335509078E0,-2.334346622E-2,-8.978256024E-3,9.793481827E0
2.337506942E0,-5.207388848E-2,-9.516951442E-2,9.621099472E0
2.339504807E0,-1.855506375E-2,5.386953708E-3,9.659406662E0
2.341502672E0,6.284779310E-2,8.200141042E-2,9.424775124E0
2.343500536E0,1.394622475E-1,2.974795699E-1,9.333795547E0
2.345498401E0,2.256535143E-1,2.352303118E-1,9.678560257E0
2.347496265E0,2.448071241E-1,2.160767019E-1,9.932345390E0
2.349494078E0,3.501519859E-1,2.448071241E-1,1.010472870E1
2.351491734E0,3.262099922E-1,1.729810685E-1,9.922768593E0
2.353489338E0,2.591723204E-1,1.975216344E-2,9.989806175E0
2.355486942E0,1.346738487E-1,5.985504249E-4,9.865307808E0
2.357484494E0,5.805939063E-2,5.327098817E-2,9.257181168E0
2.359482047E0,-3.770867735E-2,1.681926697E-1,9.376891136E0
2.361479599E0,-2.334346622E-2,-6.165069342E-2,1.002332497E1
2.363477151E0,-5.686229095E-2,5.386953708E-3,1.002811337E1
2.365474703E0,-6.643909961E-2,-1.669955701E-1,1.015740108E1
2.367472255E0,-4.728548229E-2,2.352303118E-1,9.439140320E0
2.369469807E0,-4.728548229E-2,1.777694821E-1,9.850942612E0
2.371467359E0,-3.770867735E-2,2.160767019E-1,9.740809441E0
2.373464911E0,1.975216344E-2,3.022679687E-1,9.419986725E0
2.375462463E0,5.985504249E-4,1.921346933E-1,9.745597839E0
2.377460015E0,4.369417951E-2,2.495955229E-1,1.012388229E1
2.379457567E0,9.636662155E-2,3.693056107E-1,9.841365814E0
2.381455119E0,1.011550203E-1,3.693056107E-1,9.640253067E0
2.383452672E0,8.678980917E-2,1.975216344E-2,1.010472870E1
2.385450224E0,2.932897024E-2,7.242459804E-2,9.941922188E0
2.387447828E0,8.200141042E-2,2.687491477E-1,9.487024307E0
2.389445484E0,9.636662155E-2,1.394622475E-1,9.668983459E0
2.391443192E0,1.059434265E-1,6.763619930E-2,9.927556992E0
2.393440953E0,1.346738487E-1,5.985504249E-4,9.985017776E0
2.395438765E0,1.873462796E-1,-2.340332121E-1,1.022443867E1
2.397436630E0,1.873462796E-1,3.980360329E-1,8.596381187E0
2.399434547E0,2.160767019E-1,5.177460909E-1,8.696937561E0
2.401432515E0,2.687491477E-1,1.921346933E-1,9.702502251E0
2.403430536E0,2.400187254E-1,-2.962824702E-1,1.053089619E1
2.405428609E0,1.298854351E-1,-4.207809567E-1,1.078946972E1
2.407426734E0,1.496376097E-2,-1.526303589E-1,9.803058624E0
2.409424859E0,-4.189853091E-3,3.890577704E-2,9.290699959E0
2.411422984E0,-9.038111567E-2,-6.643909961E-2,9.673771858E0
2.413421109E0,-1.238999367E-1,-5.207388848E-2,9.865307808E0
2.415419234E0,-9.516951442E-2,3.411737457E-2,1.003769016E1
2.417417203E0,-6.165069342E-2,-4.728548229E-2,9.865307808E0
2.419415067E0,-7.122749835E-2,-3.393780887E-1,1.034893703E1
2.421412672E0,-1.717839688E-1,-1.143231317E-1,9.530119896E0
2.423410276E0,-2.053027898E-1,1.634042710E-1,8.591592789E0
2.425407880E0,-1.526303589E-1,3.022679687E-1,8.280346870E0
2.427405484E0,-1.382651478E-1,7.242459804E-2,9.151836395E0
2.429403088E0,3.411737457E-2,-1.622071713E-1,1.049737740E1
2.431400692E0,1.298854351E-1,-2.771288455E-1,1.058835697E1
2.433398297E0,1.825578809E-1,-3.585317135E-1,1.018134308E1
2.435395901E0,1.442506462E-1,-2.005143911E-1,9.578003883E0
2.437393505E0,1.107318252E-1,-4.189853091E-3,9.003395081E0
2.439391109E0,1.155202314E-1,-4.249707982E-2,9.510966301E0
2.441388713E0,1.011550203E-1,-4.016273320E-1,1.046864700E1
2.443386317E0,1.729810685E-1,-3.728969097E-1,1.062187576E1
2.445383922E0,1.538274586E-1,6.284779310E-2,9.846154213E0
2.447381526E0,2.495955229E-1,3.740940094E-1,9.654618263E0
2.449379182E0,1.490390599E-1,5.512649417E-1,9.434351921E0
2.451376890E0,1.059434265E-1,5.608417392E-1,9.032125473E0
2.453374651E0,6.763619930E-2,9.636662155E-2,9.822212219E0
2.455372463E0,4.369417951E-2,6.284779310E-2,1.021007347E1
2.457370276E0,1.155202314E-1,3.022679687E-1,1.008078671E1
2.459368088E0,7.721300423E-2,6.326677799E-1,9.664195061E0
2.461365953E0,5.805939063E-2,5.943605900E-1,9.405621529E0
2.463363869E0,-5.686229095E-2,6.087257862E-1,9.276334763E0
2.465361786E0,-8.080431074E-2,-3.106476665E-1,1.042076302E1
2.467359703E0,-1.813607812E-1,-2.292448133E-1,1.055962658E1
2.469357619E0,-9.516951442E-2,5.608417392E-1,9.357737541E0
2.471355536E0,-1.334767491E-1,6.374561787E-1,9.391256332E0
2.473353453E0,-9.038111567E-2,3.740940094E-1,9.783905029E0
2.475351369E0,-1.861491799E-1,-2.388216257E-1,1.061229897E1
2.477349286E0,-1.717839688E-1,7.721300423E-2,1.024359226E1
2.479347203E0,-1.669955701E-1,4.554968774E-1,9.242815971E0
2.481344963E0,-2.148796022E-1,3.597288132E-1,8.965087891E0
2.483342567E0,-3.010708690E-1,1.017535757E-2,9.357737541E0
2.485340172E0,-3.393780887E-1,-3.728969097E-1,1.022443867E1
2.487337776E0,-2.723404467E-1,-2.244564146E-1,1.022922707E1
2.489335380E0,-2.531868219E-1,-2.723404467E-1,1.016697788E1
2.491332984E0,-3.058592677E-1,1.017535757E-2,9.295488358E0
2.493330588E0,-2.531868219E-1,2.304419130E-1,8.893261909E0
2.495328244E0,-2.340332121E-1,6.763619930E-2,9.103952408E0
2.497325953E0,-2.723404467E-1,-5.692214370E-1,1.024838066E1
2.499323713E0,-2.148796022E-1,-4.542997777E-1,1.032978344E1
2.501321526E0,-2.053027898E-1,-2.813187055E-2,9.501389503E0
2.503319390E0,-2.579752207E-1,6.284779310E-2,9.271546364E0
2.505317255E0,-2.483984232E-1,-1.861491799E-1,9.712079048E0
2.507315119E0,-2.914940715E-1,-2.723404467E-1,9.970652580E0
2.509312984E0,-2.771288455E-1,-1.095347255E-1,9.769539833E0
2.511310849E0,-2.340332121E-1,3.890577704E-2,9.645041466E0
2.513308713E0,-2.340332121E-1,1.496376097E-2,9.678560257E0
2.515306578E0,-2.914940715E-1,-7.122749835E-2,9.525331497E0
2.517304442E0,-2.627636492E-1,-1.376665942E-2,9.625887871E0
2.519302307E0,-2.244564146E-1,-1.622071713E-1,9.841365814E0
2.521300172E0,-1.526303589E-1,-1.478419602E-1,9.616311073E0
2.523298036E0,-1.238999367E-1,-1.430535465E-1,9.616311073E0
2.525295901E0,-8.080431074E-2,-2.100912035E-1,9.812635422E0
2.527293765E0,-5.207388848E-2,-3.393780887E-1,1.009036350E1
2.529291630E0,-7.601590455E-2,-2.100912035E-1,9.898826599E0
2.531289234E0,-3.770867735E-2,-1.191115379E-1,9.515754700E0
2.533286838E0,-8.080431074E-2,-1.861491799E-1,9.779116631E0
2.535284442E0,-5.207388848E-2,-7.122749835E-2,9.563638687E0
2.537282047E0,-7.122749835E-2,-1.574187577E-1,9.750386238E0
2.539279651E0,1.017535757E-2,-1.334767491E-1,9.970652580E0
2.541277203E0,4.848258570E-2,-7.122749835E-2,9.898826599E0
2.543274755E0,3.890577704E-2,-2.340332121E-1,9.975440979E0
2.545272307E0,-6.165069342E-2,-1.765723825E-1,9.185355186E0
2.547269859E0,1.496376097E-2,-2.340332121E-1,9.740809441E0
2.549267411E0,1.496376097E-2,-2.436100245E-1,9.827000618E0
2.551264963E0,8.200141042E-2,-3.202244639E-1,1.011909389E1
2.553262515E0,9.157821536E-2,-3.345896900E-1,1.009515190E1
2.555260119E0,6.763619930E-2,-1.238999367E-1,9.879673004E0
2.557257776E0,-2.813187055E-2,-2.723404467E-1,9.788693428E0
2.559255484E0,-9.516951442E-2,-3.920505345E-1,1.021486187E1
2.561253244E0,-1.478419602E-1,-2.053027898E-1,9.759963036E0
2.563251057E0,-1.574187577E-1,-4.728548229E-2,9.759963036E0
2.565248869E0,-2.388216257E-1,2.208651006E-1,9.477447510E0
2.567246682E0,-2.483984232E-1,2.591723204E-1,9.190143585E0
2.569244494E0,-2.292448133E-1,-6.165069342E-2,9.276334763E0
2.571242307E0,-1.957259923E-1,-5.213374496E-1,1.015261269E1
2.573240119E0,-9.995792061E-2,-3.920505345E-1,1.009994030E1
2.575237932E0,-5.207388848E-2,-2.388216257E-1,9.889249802E0
2.577235744E0,-4.189853091E-3,-1.861491799E-1,9.721655846E0
2.579233557E0,8.678980917E-2,3.890577704E-2,9.305065155E0
2.581231161E0,1.059434265E-1,-1.574187577E-1,9.367314339E0
2.583228765E0,1.155202314E-1,-3.824737072E-1,9.755174637E0
2.585226369E0,1.442506462E-1,-3.968389332E-1,1.028668785E1
2.587223974E0,2.543839216E-1,1.975216344E-2,9.975440979E0
2.589221578E0,2.879027426E-1,1.490390599E-1,9.491812706E0
2.591219182E0,3.166331649E-1,3.890577704E-2,9.673771858E0
2.593216786E0,2.974795699E-1,7.721300423E-2,9.640253067E0
2.595214390E0,2.879027426E-1,-5.686229095E-2,9.946710587E0
2.597212047E0,2.256535143E-1,3.411737457E-2,9.865307808E0
2.599209755E0,2.687491477E-1,-5.207388848E-2,1.012867069E1
2.601207515E0,2.687491477E-1,9.636662155E-2,9.817423820E0
2.603205328E0,2.448071241E-1,2.974795699E-1,9.271546364E0
2.605203140E0,2.448071241E-1,2.160767019E-1,9.333795547E0
2.607200953E0,2.352303118E-1,1.250970364E-1,1.002332497E1
2.609198765E0,2.591723204E-1,1.921346933E-1,1.012867069E1
2.611196578E0,3.022679687E-1,2.064998895E-1,9.678560257E0
2.613194390E0,2.160767019E-1,2.879027426E-1,9.223662376E0
2.615192203E0,2.352303118E-1,3.070563674E-1,9.520543098E0
2.617190015E0,2.064998895E-1,6.763619930E-2,9.659406662E0
2.619187828E0,1.634042710E-1,-2.388216257E-1,1.028668785E1
2.621185588E0,1.298854351E-1,-8.559270948E-2,1.027711105E1
2.623183349E0,6.763619930E-2,-1.191115379E-1,9.956287384E0
2.625181109E0,5.386953708E-3,-4.189853091E-3,9.601945877E0
2.627178869E0,-7.601590455E-2,1.107318252E-1,9.448717117E0
2.629176578E0,-5.207388848E-2,-2.053027898E-1,1.050695419E1
2.631174286E0,-1.478419602E-1,-7.122749835E-2,9.755174637E0
2.633171994E0,-1.376665942E-2,3.118447661E-1,8.558073997E0
2.635169703E0,9.636662155E-2,4.076128304E-1,8.811859131E0
2.637167411E0,1.729810685E-1,3.453635871E-1,9.271546364E0
2.639165119E0,2.352303118E-1,1.017535757E-2,9.836577415E0
2.641162828E0,3.070563674E-1,-4.016273320E-1,9.999382973E0
2.643160536E0,2.495955229E-1,-3.250128925E-1,9.941922188E0
2.645158140E0,2.448071241E-1,-7.601590455E-2,9.759963036E0
2.647155692E0,2.112883031E-1,9.157821536E-2,9.788693428E0
2.649153140E0,1.538274586E-1,-1.574187577E-1,1.034414864E1
2.651150588E0,-1.376665942E-2,-1.813607812E-1,9.951498985E0
2.653148036E0,-1.382651478E-1,-1.047463268E-1,9.357737541E0
2.655145484E0,-1.095347255E-1,-9.038111567E-2,9.683348656E0
2.657142984E0,-1.717839688E-1,1.490390599E-1,9.568427086E0
2.659140536E0,-1.191115379E-1,2.017114908E-1,9.649829865E0
2.661138140E0,-7.601590455E-2,1.729810685E-1,9.688137054E0
2.663135797E0,-3.770867735E-2,8.678980917E-2,1.007120991E1
2.665133505E0,-8.080431074E-2,1.777694821E-1,9.625887871E0
2.667131265E0,-1.855506375E-2,2.352303118E-1,9.558850288E0
2.669129078E0,-4.189853091E-3,1.011550203E-1,9.692925453E0
2.671126942E0,3.890577704E-2,-1.430535465E-1,9.779116631E0
2.673124859E0,7.721300423E-2,-2.340332121E-1,9.798270226E0
2.675122828E0,1.975216344E-2,-2.148796022E-1,9.692925453E0
2.677120849E0,5.327098817E-2,5.985504249E-4,9.276334763E0
2.679118869E0,6.284779310E-2,2.454056777E-2,9.343372345E0
2.681116890E0,1.107318252E-1,-1.669955701E-1,9.961075783E0
2.683114859E0,1.538274586E-1,-2.627636492E-1,1.043033981E1
2.685112463E0,1.777694821E-1,5.805939063E-2,9.822212219E0
2.687110067E0,1.825578809E-1,6.284779310E-2,1.009994030E1
2.689107672E0,7.721300423E-2,2.112883031E-1,9.659406662E0
2.691105276E0,-1.376665942E-2,2.400187254E-1,9.860519409E0
2.693102932E0,6.284779310E-2,3.070563674E-1,9.759963036E0
2.695100640E0,4.369417951E-2,8.678980917E-2,9.726444244E0
2.697098401E0,-4.189853091E-3,3.890577704E-2,9.568427086E0
2.699096213E0,2.932897024E-2,-8.978256024E-3,9.788693428E0
2.701094078E0,1.975216344E-2,-1.855506375E-2,9.922768593E0
2.703091942E0,-4.728548229E-2,5.985504249E-4,1.002332497E1
2.705089807E0,5.386953708E-3,1.346738487E-1,9.678560257E0
2.707087672E0,-3.292027488E-2,3.357867897E-1,8.989029884E0
2.709085536E0,-2.813187055E-2,-1.574187577E-1,1.002332497E1
2.711083349E0,-8.080431074E-2,-3.728969097E-1,1.019570827E1
2.713080901E0,-7.601590455E-2,-9.516951442E-2,9.989806175E0
2.715078453E0,-3.292027488E-2,6.763619930E-2,9.554061890E0
2.717076005E0,-1.047463268E-1,1.107318252E-1,9.496601105E0
2.719073557E0,-9.995792061E-2,-6.643909961E-2,9.597157478E0
2.721071109E0,-7.122749835E-2,-3.154360652E-1,9.874884605E0
2.723068661E0,-3.292027488E-2,-3.681085110E-1,1.013345909E1
2.725066213E0,6.763619930E-2,-1.095347255E-1,9.980229378E0
2.727063765E0,4.848258570E-2,4.369417951E-2,9.515754700E0
2.729061317E0,1.017535757E-2,1.017535757E-2,9.352949142E0
2.731058869E0,1.975216344E-2,-1.526303589E-1,9.386467934E0
2.733056422E0,4.369417951E-2,-1.622071713E-1,9.554061890E0
2.735053974E0,5.805939063E-2,-1.238999367E-1,9.515754700E0
2.737051526E0,9.636662155E-2,-2.053027898E-1,9.515754700E0
2.739049078E0,1.538274586E-1,-1.957259923E-1,9.736021042E0
2.741046630E0,1.634042710E-1,-2.627636492E-1,1.024359226E1
2.743044182E0,2.304419130E-1,-2.148796022E-1,1.019091988E1
2.745041734E0,1.298854351E-1,-6.165069342E-2,9.645041466E0
2.747039286E0,1.634042710E-1,1.496376097E-2,9.338583946E0
2.749036890E0,1.011550203E-1,-2.483984232E-1,9.372102737E0
2.751034547E0,7.721300423E-2,-3.968389332E-1,9.937133789E0
2.753032255E0,1.538274586E-1,-3.776853085E-1,1.013345909E1
2.755030015E0,2.160767019E-1,-3.441664875E-1,1.011430550E1
2.757027828E0,1.921346933E-1,-8.978256024E-3,9.716867447E0
2.759025692E0,1.873462796E-1,3.309983909E-1,9.113529205E0
2.761023609E0,1.250970364E-1,1.155202314E-1,8.965087891E0
2.763021578E0,6.763619930E-2,-3.010708690E-1,9.319430351E0
2.765019599E0,9.157821536E-2,-2.914940715E-1,9.903614998E0
2.767017672E0,1.394622475E-1,-5.207388848E-2,9.975440979E0
2.769015797E0,1.490390599E-1,-3.106476665E-1,9.999382973E0
2.771013974E0,1.496376097E-2,-2.723404467E-1,1.021007347E1
2.773012203E0,-3.770867735E-2,-1.855506375E-2,9.850942612E0
2.775010432E0,-8.080431074E-2,5.985504249E-4,9.707290649E0
2.777008661E0,-1.047463268E-1,-5.207388848E-2,9.578003883E0
2.779006890E0,-1.813607812E-1,-1.238999367E-1,9.611522675E0
2.781005119E0,-2.100912035E-1,-8.080431074E-2,9.683348656E0
2.783003349E0,-7.601590455E-2,1.298854351E-1,1.012867069E1
2.785001526E0,-7.601590455E-2,2.591723204E-1,9.994594574E0
2.786999390E0,-1.143231317E-1,1.017535757E-2,9.970652580E0
2.788997255E0,-1.286883354E-1,-2.148796022E-1,1.035851383E1
2.790995119E0,-3.292027488E-2,3.932476342E-1,9.827000618E0
2.792992984E0,-5.207388848E-2,4.411316514E-1,9.376891136E0
2.794990849E0,-8.080431074E-2,3.022679687E-1,9.223662376E0
2.796988713E0,-4.728548229E-2,6.284779310E-2,9.530119896E0
2.798986578E0,-4.249707982E-2,-8.978256024E-3,9.860519409E0
2.800984442E0,5.386953708E-3,2.454056777E-2,9.827000618E0
2.802982307E0,6.763619930E-2,5.327098817E-2,9.654618263E0
2.804980172E0,1.250970364E-1,1.107318252E-1,9.726444244E0
2.806978036E0,1.490390599E-1,1.496376097E-2,9.616311073E0
2.808975901E0,1.394622475E-1,-9.516951442E-2,9.707290649E0
2.810973765E0,1.250970364E-1,-1.238999367E-1,1.005684471E1
2.812971630E0,1.155202314E-1,1.394622475E-1,1.029626465E1
2.814969494E0,1.155202314E-1,1.059434265E-1,1.000417137E1
2.816967359E0,8.200141042E-2,1.873462796E-1,9.846154213E0
2.818965224E0,8.200141042E-2,4.267664552E-1,9.482235909E0
2.820963088E0,1.107318252E-1,4.602852762E-1,9.544485092E0
2.822960640E0,1.017535757E-2,7.242459804E-2,9.597157478E0
2.824958192E0,5.386953708E-3,1.011550203E-1,9.597157478E0
2.826955744E0,-4.728548229E-2,-3.770867735E-2,9.894038200E0
2.828953297E0,-6.643909961E-2,2.454056777E-2,1.003769016E1
2.830950849E0,2.454056777E-2,8.200141042E-2,9.860519409E0
2.832948453E0,-1.376665942E-2,1.873462796E-1,9.477447510E0
2.834946109E0,-6.643909961E-2,2.932897024E-2,9.410409927E0
2.836943817E0,-7.122749835E-2,-1.909375787E-1,9.419986725E0
2.838941578E0,2.454056777E-2,-3.441664875E-1,1.020049667E1
2.840939390E0,9.157821536E-2,-8.080431074E-2,1.042555141E1
2.842937255E0,2.064998895E-1,2.017114908E-1,1.012388229E1
2.844935172E0,1.921346933E-1,3.214215636E-1,9.175778389E0
2.846933140E0,1.011550203E-1,2.400187254E-1,9.084798813E0
2.848931161E0,2.932897024E-2,-7.122749835E-2,9.424775124E0
2.850929234E0,1.496376097E-2,-2.962824702E-1,1.021965027E1
2.852927359E0,1.155202314E-1,9.157821536E-2,1.033936024E1
2.854925536E0,9.157821536E-2,3.549404144E-1,9.673771858E0
2.856923713E0,-2.813187055E-2,4.076128304E-1,8.979453087E0
2.858921890E0,-2.813187055E-2,1.777694821E-1,9.027337074E0
2.860920067E0,-1.478419602E-1,-6.165069342E-2,9.175778389E0
2.862918244E0,-1.143231317E-1,-3.058592677E-1,9.865307808E0
2.864916161E0,-6.643909961E-2,-4.064157307E-1,1.059793377E1
2.866913974E0,3.890577704E-2,-9.995792061E-2,1.032978344E1
2.868911786E0,5.327098817E-2,-3.292027488E-2,9.759963036E0
2.870909494E0,-2.813187055E-2,3.890577704E-2,9.587580681E0
2.872907203E0,-4.728548229E-2,8.200141042E-2,9.396044731E0
2.874904911E0,-3.292027488E-2,1.496376097E-2,9.309853554E0
2.876902619E0,-8.559270948E-2,6.284779310E-2,9.554061890E0
2.878900328E0,-4.249707982E-2,-9.038111567E-2,9.903614998E0
2.880898036E0,-5.686229095E-2,-2.053027898E-1,9.874884605E0
2.882895744E0,-9.516951442E-2,-1.717839688E-1,1.013824749E1
2.884893453E0,-9.038111567E-2,1.011550203E-1,1.023880386E1
2.886891161E0,-1.334767491E-1,1.975216344E-2,9.807847023E0
2.888888869E0,-2.244564146E-1,-1.095347255E-1,9.645041466E0
2.890886578E0,-2.483984232E-1,5.805939063E-2,9.510966301E0
2.892884286E0,-2.483984232E-1,1.442506462E-1,9.525331497E0
2.894881994E0,-2.053027898E-1,-2.100912035E-1,9.611522675E0
2.896879703E0,-2.005143911E-1,5.805939063E-2,9.664195061E0
2.898877411E0,-1.478419602E-1,3.836708367E-1,9.338583946E0
2.900875119E0,-1.574187577E-1,1.777694821E-1,9.295488358E0
2.902872880E0,-1.143231317E-1,-2.388216257E-1,9.937133789E0
2.904870692E0,-3.770867735E-2,-2.819172442E-1,1.038724422E1
2.906868557E0,-3.770867735E-2,5.985504249E-4,1.018134308E1
2.908866474E0,-8.559270948E-2,1.825578809E-1,9.903614998E0
2.910864442E0,-5.686229095E-2,1.729810685E-1,9.587580681E0
2.912862411E0,-1.095347255E-1,9.636662155E-2,9.640253067E0
2.914860380E0,-1.669955701E-1,2.735375464E-1,9.391256332E0
2.916858349E0,-1.430535465E-1,2.400187254E-1,9.386467934E0
2.918856317E0,-1.334767491E-1,1.825578809E-1,9.707290649E0
2.920854286E0,-1.047463268E-1,1.969230920E-1,1.003769016E1
2.922852255E0,-1.855506375E-2,2.543839216E-1,9.927556992E0
2.924850224E0,-4.728548229E-2,2.974795699E-1,9.831789017E0
2.926848192E0,-9.516951442E-2,1.059434265E-1,9.668983459E0
2.928846161E0,-1.238999367E-1,-7.601590455E-2,9.788693428E0
2.930843765E0,-1.143231317E-1,-7.122749835E-2,1.018134308E1
2.932841265E0,-3.292027488E-2,3.501519859E-1,9.855731010E0
2.934838765E0,-9.995792061E-2,1.586158574E-1,9.400833130E0
2.936836265E0,-1.191115379E-1,1.442506462E-1,9.396044731E0
2.938833765E0,-9.516951442E-2,1.634042710E-1,9.544485092E0
2.940831317E0,-1.855506375E-2,5.805939063E-2,9.606734276E0
2.942828922E0,-5.207388848E-2,-1.095347255E-1,9.745597839E0
2.944826578E0,-5.686229095E-2,-1.669955701E-1,1.001374817E1
2.946824286E0,-7.601590455E-2,-2.100912035E-1,1.006642151E1
2.948822047E0,-1.095347255E-1,-1.286883354E-1,1.014782429E1
2.950819859E0,-1.191115379E-1,1.490390599E-1,9.884461403E0
2.952817724E0,-1.095347255E-1,1.250970364E-1,9.410409927E0
2.954815640E0,-1.813607812E-1,-8.978256024E-3,9.257181168E0
2.956813609E0,-1.574187577E-1,-2.813187055E-2,9.606734276E0
2.958811630E0,-1.813607812E-1,8.200141042E-2,1.005684471E1
2.960809703E0,-1.143231317E-1,1.825578809E-1,9.683348656E0
2.962807776E0,-4.728548229E-2,1.155202314E-1,9.405621529E0
2.964805849E0,-8.080431074E-2,-2.813187055E-2,9.491812706E0
2.966803817E0,-5.207388848E-2,-2.813187055E-2,9.712079048E0
2.968801369E0,5.805939063E-2,-1.855506375E-2,9.889249802E0
2.970798922E0,7.242459804E-2,5.985504249E-4,9.989806175E0
2.972796474E0,6.284779310E-2,-8.559270948E-2,1.018613148E1
2.974794026E0,1.107318252E-1,1.442506462E-1,1.009515190E1
2.976791578E0,1.155202314E-1,2.879027426E-1,9.879673004E0
2.978789130E0,3.890577704E-2,2.687491477E-1,9.692925453E0
2.980786682E0,-4.189853091E-3,5.033808947E-1,9.501389503E0
2.982784234E0,-4.189853091E-3,5.177460909E-1,9.305065155E0
2.984781786E0,-8.559270948E-2,4.848258570E-2,9.597157478E0
2.986779338E0,-7.122749835E-2,-3.537433147E-1,1.048780060E1
2.988776942E0,1.017535757E-2,1.155202314E-1,1.043033981E1
2.990774599E0,1.496376097E-2,2.926911712E-1,9.879673004E0
2.992772307E0,-8.080431074E-2,3.262099922E-1,9.324218750E0
2.994770067E0,-1.622071713E-1,7.721300423E-2,9.175778389E0
2.996767880E0,-2.531868219E-1,-5.207388848E-2,9.645041466E0
2.998765744E0,-9.516951442E-2,-2.334346622E-2,1.005684471E1
3.000763661E0,-1.143231317E-1,-2.388216257E-1,1.003769016E1
3.002761630E0,-8.080431074E-2,-1.286883354E-1,9.970652580E0
3.004759599E0,-9.995792061E-2,1.107318252E-1,9.635464668E0
3.006757567E0,-1.669955701E-1,-5.207388848E-2,9.510966301E0
3.008755536E0,-1.765723825E-1,-9.516951442E-2,9.429563522E0
3.010753505E0,-2.292448133E-1,-1.382651478E-1,9.506177902E0
3.012751474E0,-2.292448133E-1,-1.430535465E-1,9.592369080E0
3.014749442E0,-1.238999367E-1,-9.516951442E-2,9.477447510E0
3.016746942E0,-6.165069342E-2,-9.995792061E-2,9.477447510E0
3.018744442E0,-3.292027488E-2,-1.765723825E-1,9.903614998E0
3.020741942E0,-4.189853091E-3,-3.770867735E-2,9.616311073E0
3.022739442E0,-2.334346622E-2,-1.238999367E-1,9.410409927E0
3.024736942E0,4.369417951E-2,-1.813607812E-1,9.601945877E0
3.026734442E0,2.932897024E-2,-2.436100245E-1,9.716867447E0
3.028731942E0,5.805939063E-2,-1.813607812E-1,9.889249802E0
3.030729442E0,1.155202314E-1,7.242459804E-2,9.759963036E0
3.032726994E0,1.442506462E-1,5.386953708E-3,9.625887871E0
3.034724599E0,1.346738487E-1,-1.765723825E-1,9.764751434E0
3.036722255E0,1.155202314E-1,-2.531868219E-1,1.010951710E1
3.038719963E0,2.160767019E-1,-4.728548229E-2,1.020528507E1
3.040717724E0,1.825578809E-1,1.011550203E-1,9.889249802E0
3.042715536E0,1.825578809E-1,1.346738487E-1,9.496601105E0
3.044713401E0,1.586158574E-1,9.636662155E-2,9.467870712E0
3.046711317E0,1.681926697E-1,2.879027426E-1,9.443928719E0
3.048709286E0,2.543839216E-1,2.448071241E-1,9.578003883E0
3.050707307E0,3.118447661E-1,1.777694821E-1,9.697713852E0
3.052705380E0,4.267664552E-1,2.735375464E-1,9.578003883E0
3.054703453E0,4.842272997E-1,1.729810685E-1,9.812635422E0
3.056701526E0,4.938040972E-1,1.250970364E-1,9.731232643E0
3.058699599E0,4.698620737E-1,-1.376665942E-2,9.879673004E0
3.060697672E0,4.076128304E-1,-2.813187055E-2,1.003290176E1
3.062695744E0,3.788824081E-1,1.496376097E-2,9.932345390E0
3.064693557E0,3.214215636E-1,9.157821536E-2,9.736021042E0
3.066691265E0,2.543839216E-1,4.369417951E-2,9.525331497E0
3.068688869E0,2.160767019E-1,-8.559270948E-2,9.707290649E0
3.070686474E0,1.921346933E-1,-6.165069342E-2,9.946710587E0
3.072684078E0,1.298854351E-1,-9.038111567E-2,9.946710587E0
3.074681682E0,6.284779310E-2,-7.601590455E-2,9.985017776E0
3.076679286E0,1.975216344E-2,2.160767019E-1,9.539696693E0
3.078676890E0,-4.728548229E-2,2.208651006E-1,9.060855865E0
3.080674494E0,-8.559270948E-2,4.848258570E-2,9.372102737E0
3.082672151E0,-1.095347255E-1,-1.095347255E-1,9.769539833E0
3.084669859E0,-9.038111567E-2,-3.770867735E-2,9.941922188E0
3.086667619E0,-9.995792061E-2,5.386953708E-3,9.831789017E0
3.088665432E0,-1.238999367E-1,-7.122749835E-2,9.798270226E0
3.090663297E0,-1.382651478E-1,2.932897024E-2,9.482235909E0
3.092661161E0,-1.717839688E-1,5.327098817E-2,9.611522675E0
3.094659026E0,-1.238999367E-1,-3.292027488E-2,9.587580681E0
3.096656890E0,-9.038111567E-2,-1.526303589E-1,9.611522675E0
3.098654755E0,-1.191115379E-1,-1.861491799E-1,9.951498985E0
3.100652619E0,-4.728548229E-2,-5.686229095E-2,9.745597839E0
3.102650380E0,2.932897024E-2,6.763619930E-2,9.654618263E0
3.104647984E0,5.327098817E-2,2.932897024E-2,9.477447510E0
3.106645588E0,1.975216344E-2,-9.995792061E-2,9.726444244E0
3.108643192E0,1.346738487E-1,-1.855506375E-2,9.922768593E0
3.110640797E0,2.256535143E-1,2.448071241E-1,9.793481827E0
3.112638401E0,2.112883031E-1,1.155202314E-1,9.678560257E0
3.114636005E0,2.208651006E-1,1.059434265E-1,9.745597839E0
3.116633609E0,2.543839216E-1,2.687491477E-1,9.850942612E0
3.118631213E0,2.974795699E-1,3.740940094E-1,9.601945877E0
3.120628817E0,2.591723204E-1,4.028244317E-1,9.439140320E0
3.122626422E0,2.448071241E-1,2.495955229E-1,9.467870712E0
3.124624026E0,2.304419130E-1,2.208651006E-1,9.731232643E0
3.126621682E0,2.256535143E-1,2.448071241E-1,9.946710587E0
3.128619390E0,2.495955229E-1,1.729810685E-1,9.927556992E0
3.130617151E0,1.634042710E-1,5.386953708E-3,9.946710587E0
3.132614963E0,1.203086376E-1,5.985504249E-4,9.932345390E0
3.134612828E0,9.157821536E-2,1.155202314E-1,9.908403397E0
3.136610692E0,1.203086376E-1,2.831143439E-1,9.779116631E0
3.138608557E0,1.346738487E-1,3.693056107E-1,9.592369080E0
3.140606422E0,8.200141042E-2,3.070563674E-1,9.424775124E0
3.142604286E0,6.763619930E-2,2.160767019E-1,9.563638687E0
3.144602151E0,1.059434265E-1,2.687491477E-1,9.496601105E0
3.146600015E0,2.208651006E-1,8.200141042E-2,9.989806175E0
3.148597880E0,2.974795699E-1,1.250970364E-1,1.005205631E1
3.150595744E0,3.309983909E-1,2.400187254E-1,9.908403397E0
3.152593609E0,3.453635871E-1,2.017114908E-1,9.683348656E0
3.154591474E0,3.357867897E-1,1.496376097E-2,9.625887871E0
3.156589338E0,3.549404144E-1,-8.559270948E-2,1.005205631E1
3.158587203E0,3.501519859E-1,7.242459804E-2,1.002811337E1
3.160585067E0,3.693056107E-1,1.155202314E-1,9.750386238E0
3.162582932E0,2.926911712E-1,6.763619930E-2,9.534908295E0
3.164580797E0,2.352303118E-1,1.250970364E-1,9.491812706E0
3.166578661E0,2.783259451E-1,1.346738487E-1,9.712079048E0
3.168576526E0,2.879027426E-1,4.369417951E-2,9.807847023E0
3.170574390E0,3.357867897E-1,1.250970364E-1,9.946710587E0
3.172572255E0,3.453635871E-1,1.873462796E-1,9.788693428E0
3.174570119E0,3.022679687E-1,2.639607489E-1,9.683348656E0
3.176567984E0,2.926911712E-1,3.070563674E-1,9.668983459E0
3.178565849E0,2.735375464E-1,2.783259451E-1,9.688137054E0
3.180563713E0,3.405751884E-1,3.836708367E-1,9.874884605E0
3.182561578E0,3.597288132E-1,3.980360329E-1,9.836577415E0
3.184559442E0,3.980360329E-1,4.794389009E-1,9.688137054E0
3.186557307E0,3.262099922E-1,3.980360329E-1,9.793481827E0
3.188555172E0,3.309983909E-1,4.171896577E-1,9.874884605E0
3.190553088E0,4.076128304E-1,6.087257862E-1,9.999382973E0
3.192551057E0,4.076128304E-1,6.997054219E-1,9.793481827E0
3.194549078E0,4.411316514E-1,6.135141850E-1,9.616311073E0
3.196547151E0,4.076128304E-1,2.687491477E-1,9.932345390E0
3.198545224E0,4.219780564E-1,4.171896577E-1,1.012867069E1
3.200543297E0,3.932476342E-1,4.554968774E-1,9.750386238E0
3.202541369E0,3.501519859E-1,3.453635871E-1,9.501389503E0
3.204539442E0,2.783259451E-1,4.124012291E-1,9.357737541E0
3.206537463E0,2.926911712E-1,4.554968774E-1,9.333795547E0
3.208535172E0,2.352303118E-1,1.825578809E-1,9.645041466E0
3.210532880E0,1.969230920E-1,-7.601590455E-2,1.013824749E1
3.212530588E0,1.681926697E-1,-1.909375787E-1,1.045907021E1
3.214528297E0,2.687491477E-1,5.416881442E-1,1.002811337E1
3.216526005E0,2.591723204E-1,6.518214345E-1,9.132682800E0
3.218523713E0,1.011550203E-1,3.645172119E-1,8.859743118E0
3.220521422E0,1.496376097E-2,1.586158574E-1,9.242815971E0
3.222519130E0,5.985504249E-4,1.586158574E-1,9.937133789E0
3.224516838E0,-2.334346622E-2,1.969230920E-1,9.898826599E0
3.226514547E0,1.017535757E-2,4.848258570E-2,1.005684471E1
3.228512255E0,1.975216344E-2,2.454056777E-2,1.002811337E1
3.230510015E0,-4.728548229E-2,-1.574187577E-1,1.009515190E1
3.232507776E0,-4.189853091E-3,1.394622475E-1,1.007120991E1
3.234505588E0,5.386953708E-3,3.836708367E-1,9.530119896E0
3.236503453E0,-1.143231317E-1,2.064998895E-1,9.223662376E0
3.238501369E0,-6.643909961E-2,2.735375464E-1,9.295488358E0
3.240499338E0,-3.292027488E-2,2.160767019E-1,9.525331497E0
3.242497359E0,-6.165069342E-2,-7.122749835E-2,9.908403397E0
3.244495432E0,1.496376097E-2,2.932897024E-2,1.018613148E1
3.246493557E0,3.411737457E-2,8.200141042E-2,1.018613148E1
3.248491734E0,9.636662155E-2,2.017114908E-1,1.012388229E1
3.250489963E0,2.932897024E-2,2.304419130E-1,9.750386238E0
3.252488244E0,-5.686229095E-2,2.495955229E-1,9.692925453E0
3.254486526E0,-4.728548229E-2,3.357867897E-1,9.391256332E0
3.256484807E0,-4.728548229E-2,3.070563674E-1,9.736021042E0
3.258483088E0,-6.165069342E-2,2.735375464E-1,9.898826599E0
3.260481369E0,-9.995792061E-2,2.017114908E-1,9.831789017E0
3.262479651E0,-1.478419602E-1,2.932897024E-2,1.006642151E1
3.264477880E0,-3.770867735E-2,1.777694821E-1,1.024359226E1
3.266476109E0,-1.855506375E-2,4.890156984E-1,1.019570827E1
3.268474286E0,-1.047463268E-1,4.698620737E-1,8.649053574E0
3.270472463E0,-2.292448133E-1,2.974795699E-1,9.147047997E0
3.272470640E0,-1.669955701E-1,3.309983909E-1,9.860519409E0
3.274468557E0,-1.238999367E-1,3.070563674E-1,9.539696693E0
3.276466474E0,-1.669955701E-1,1.777694821E-1,9.841365814E0
3.278464286E0,-1.526303589E-1,1.250970364E-1,1.012867069E1
3.280462099E0,-1.095347255E-1,1.059434265E-1,9.582792282E0
3.282459911E0,-1.095347255E-1,8.200141042E-2,9.625887871E0
3.284457724E0,-1.143231317E-1,1.155202314E-1,1.021007347E1
3.286455536E0,-1.334767491E-1,4.554968774E-1,9.381679535E0
3.288453244E0,-1.382651478E-1,6.709750295E-1,8.400056839E0
3.290450953E0,-2.148796022E-1,2.932897024E-2,9.400833130E0
3.292448661E0,-1.861491799E-1,-1.095347255E-1,1.140717411E1
3.294446369E0,-2.675520480E-1,-8.080431074E-2,1.069849014E1
3.296444078E0,-3.633201122E-1,1.496376097E-2,9.539696693E0
3.298441786E0,-2.962824702E-1,2.831143439E-1,9.884461403E0
3.300439494E0,-3.250128925E-1,5.752069354E-1,9.348160744E0
3.302437203E0,-3.872621357E-1,3.070563674E-1,8.969876289E0
3.304434911E0,-4.255693555E-1,-8.559270948E-2,1.030105305E1
3.306432619E0,-3.298012912E-1,5.386953708E-3,1.043991661E1
3.308430328E0,-3.537433147E-1,1.394622475E-1,9.070432663E0
3.310428036E0,-3.489548862E-1,2.448071241E-1,9.611522675E0
3.312425744E0,-1.813607812E-1,4.315548539E-1,9.530119896E0
3.314423453E0,-1.861491799E-1,2.400187254E-1,9.185355186E0
3.316421161E0,-1.238999367E-1,9.157821536E-2,9.908403397E0
3.318418869E0,-1.478419602E-1,7.721300423E-2,1.000417137E1
3.320416578E0,-1.526303589E-1,2.304419130E-1,9.788693428E0
3.322414338E0,-1.855506375E-2,2.304419130E-1,9.242815971E0
3.324412151E0,-7.601590455E-2,-6.165069342E-2,1.038724422E1
3.326410015E0,-8.559270948E-2,-8.978256024E-3,1.080383492E1
3.328407932E0,-7.601590455E-2,2.160767019E-1,9.314641953E0
3.330405901E0,-7.122749835E-2,3.980360329E-1,9.094375610E0
3.332403922E0,5.386953708E-3,2.735375464E-1,9.889249802E0
3.334401942E0,8.200141042E-2,1.011550203E-1,1.009036350E1
3.336399963E0,1.059434265E-1,1.394622475E-1,9.367314339E0
3.338397984E0,1.298854351E-1,1.969230920E-1,9.467870712E0
3.340396005E0,1.107318252E-1,2.879027426E-1,1.002332497E1
3.342394026E0,1.634042710E-1,6.284779310E-2,1.009994030E1
3.344392047E0,2.017114908E-1,6.284779310E-2,9.783905029E0
3.346390067E0,1.203086376E-1,2.448071241E-1,1.006642151E1
3.348387880E0,1.394622475E-1,7.475894690E-1,8.328230858E0
3.350385588E0,1.107318252E-1,7.428010702E-1,8.227674484E0
3.352383297E0,8.678980917E-2,2.400187254E-1,9.501389503E0
3.354381005E0,1.394622475E-1,-1.143231317E-1,1.078946972E1
3.356378713E0,7.242459804E-2,-4.878185987E-1,1.091396809E1
3.358376422E0,5.386953708E-3,-2.914940715E-1,9.750386238E0
3.360374130E0,1.975216344E-2,8.678980917E-2,9.319430351E0
3.362371838E0,4.369417951E-2,7.242459804E-2,9.477447510E0
3.364369547E0,1.250970364E-1,5.327098817E-2,9.563638687E0
3.366367255E0,1.729810685E-1,-4.249707982E-2,1.008078671E1
3.368364963E0,1.825578809E-1,9.636662155E-2,1.006642151E1
3.370362672E0,1.969230920E-1,2.017114908E-1,9.750386238E0
3.372360380E0,1.969230920E-1,3.597288132E-1,9.611522675E0
3.374358088E0,2.304419130E-1,2.256535143E-1,9.554061890E0
3.376355797E0,2.304419130E-1,1.298854351E-1,9.894038200E0
3.378353505E0,2.304419130E-1,1.586158574E-1,1.022443867E1
3.380351213E0,2.591723204E-1,1.921346933E-1,9.755174637E0
3.382348922E0,2.160767019E-1,2.400187254E-1,9.467870712E0
3.384346630E0,2.974795699E-1,2.448071241E-1,9.793481827E0
3.386344338E0,2.256535143E-1,1.442506462E-1,9.874884605E0
3.388342047E0,2.639607489E-1,2.926911712E-1,9.410409927E0
3.390339755E0,2.543839216E-1,2.974795699E-1,9.769539833E0
3.392337515E0,3.309983909E-1,5.368997455E-1,9.439140320E0
3.394335328E0,3.309983909E-1,3.980360329E-1,9.175778389E0
3.396333192E0,3.118447661E-1,4.124012291E-1,9.961075783E0
3.398331109E0,2.974795699E-1,3.932476342E-1,9.668983459E0
3.400329078E0,2.352303118E-1,1.825578809E-1,9.884461403E0
3.402327099E0,1.777694821E-1,2.687491477E-1,1.014782429E1
3.404325172E0,1.538274586E-1,1.490390599E-1,9.530119896E0
3.406323297E0,1.490390599E-1,1.777694821E-1,1.000417137E1
3.408321474E0,1.586158574E-1,2.974795699E-1,1.012867069E1
3.410319651E0,1.346738487E-1,2.735375464E-1,9.721655846E0
3.412317828E0,1.634042710E-1,4.746504724E-1,9.855731010E0
3.414316005E0,1.777694821E-1,4.171896577E-1,9.788693428E0
3.416314182E0,1.346738487E-1,3.884592354E-1,9.932345390E0
3.418312359E0,1.107318252E-1,5.081692934E-1,9.865307808E0
3.420310536E0,1.969230920E-1,7.428010702E-1,9.750386238E0
3.422308713E0,1.442506462E-1,7.619546652E-1,9.156624794E0
3.424306630E0,2.454056777E-2,4.315548539E-1,9.544485092E0
3.426304338E0,5.985504249E-4,3.645172119E-1,9.870096207E0
3.428301942E0,-2.813187055E-2,3.932476342E-1,1.002811337E1
3.430299547E0,-1.376665942E-2,4.076128304E-1,9.731232643E0
3.432297151E0,-1.717839688E-1,9.636662155E-2,9.783905029E0
3.434294755E0,-1.957259923E-1,5.985504249E-4,9.846154213E0
3.436292359E0,-1.669955701E-1,-6.165069342E-2,1.010951710E1
3.438290015E0,-1.478419602E-1,-5.207388848E-2,1.020528507E1
3.440287724E0,-1.765723825E-1,1.921346933E-1,9.487024307E0
3.442285484E0,-2.100912035E-1,2.495955229E-1,9.367314339E0
3.444283297E0,-2.819172442E-1,1.873462796E-1,9.156624794E0
3.446281161E0,-3.106476665E-1,1.394622475E-1,9.410409927E0
3.448279078E0,-3.202244639E-1,-1.376665942E-2,9.635464668E0
3.450277047E0,-3.250128925E-1,-2.819172442E-1,1.014782429E1
3.452275067E0,-2.100912035E-1,-1.861491799E-1,1.017655468E1
3.454273140E0,-1.622071713E-1,-1.286883354E-1,1.009994030E1
3.456271265E0,-2.005143911E-1,9.636662155E-2,9.300276756E0
3.458269390E0,-1.717839688E-1,4.848258570E-2,9.046490669E0
3.460267515E0,-9.995792061E-2,7.242459804E-2,9.510966301E0
3.462265640E0,-8.978256024E-3,1.496376097E-2,9.827000618E0
3.464263765E0,-5.207388848E-2,-1.478419602E-1,9.673771858E0
3.466261890E0,-4.189853091E-3,-2.340332121E-1,9.759963036E0
3.468259807E0,3.890577704E-2,-2.005143911E-1,1.007120991E1
3.470257724E0,3.890577704E-2,-1.717839688E-1,9.855731010E0
3.472255588E0,4.369417951E-2,-1.957259923E-1,9.645041466E0
3.474253453E0,4.848258570E-2,-2.531868219E-1,9.865307808E0
3.476251317E0,9.636662155E-2,-3.585317135E-1,1.011430550E1
3.478249182E0,9.157821536E-2,-3.202244639E-1,9.664195061E0
3.480247047E0,6.763619930E-2,-3.292027488E-2,9.573215485E0
3.482244911E0,1.155202314E-1,1.298854351E-1,9.151836395E0
3.484242776E0,1.107318252E-1,7.721300423E-2,9.041702271E0
3.486240640E0,1.059434265E-1,-5.207388848E-2,9.496601105E0
3.488238557E0,1.011550203E-1,-2.244564146E-1,1.019570827E1
3.490236526E0,1.634042710E-1,2.454056777E-2,1.033457184E1
3.492234547E0,1.346738487E-1,1.825578809E-1,9.908403397E0
3.494232619E0,4.848258570E-2,6.763619930E-2,9.822212219E0
3.496230744E0,-3.770867735E-2,-1.238999367E-1,9.855731010E0
3.498228922E0,-1.382651478E-1,-1.430535465E-1,9.870096207E0
3.500227151E0,-1.478419602E-1,1.155202314E-1,9.597157478E0
3.502225432E0,-2.148796022E-1,9.157821536E-2,9.898826599E0
3.504223713E0,-2.292448133E-1,6.763619930E-2,9.793481827E0
3.506221994E0,-2.388216257E-1,7.242459804E-2,9.578003883E0
3.508220276E0,-2.771288455E-1,-1.334767491E-1,9.726444244E0
3.510218557E0,-2.579752207E-1,9.157821536E-2,9.606734276E0
3.512216786E0,-2.867056429E-1,2.160767019E-1,9.343372345E0
3.514214703E0,-2.914940715E-1,1.873462796E-1,9.194931984E0
3.516212567E0,-2.100912035E-1,-1.095347255E-1,9.482235909E0
3.518210432E0,-2.244564146E-1,-3.968389332E-1,1.009994030E1
3.520208297E0,-2.436100245E-1,-4.207809567E-1,1.082777691E1
3.522206161E0,-2.005143911E-1,-9.516951442E-2,1.006642151E1
3.524204026E0,-1.813607812E-1,1.496376097E-2,8.811859131E0
3.526201942E0,-2.148796022E-1,1.298854351E-1,9.075222015E0
3.528199911E0,-1.574187577E-1,-1.382651478E-1,9.635464668E0
3.530197932E0,-1.191115379E-1,-2.483984232E-1,1.007599831E1
3.532196005E0,-1.574187577E-1,-1.765723825E-1,9.999382973E0
3.534194130E0,-1.143231317E-1,-3.441664875E-1,1.019091988E1
3.536192307E0,-1.382651478E-1,-2.627636492E-1,1.044949341E1
3.538190536E0,-8.559270948E-2,-2.867056429E-1,1.017655468E1
3.540188765E0,-4.728548229E-2,-2.723404467E-1,1.002811337E1
3.542186994E0,-9.995792061E-2,2.543839216E-1,9.338583946E0
3.544185224E0,-9.516951442E-2,5.386953708E-3,8.783128738E0
3.546183453E0,-1.238999367E-1,-9.038111567E-2,9.922768593E0
3.548181265E0,-4.249707982E-2,1.975216344E-2,1.002332497E1
3.550179078E0,1.017535757E-2,1.442506462E-1,9.027337074E0
3.552176890E0,3.890577704E-2,2.448071241E-1,9.788693428E0
3.554174703E0,1.394622475E-1,2.352303118E-1,9.582792282E0
3.556172515E0,2.112883031E-1,1.921346933E-1,8.965087891E0
3.558170328E0,1.729810685E-1,1.681926697E-1,1.051174259E1
3.560168140E0,2.160767019E-1,1.011550203E-1,1.104804420E1
3.562165953E0,1.969230920E-1,5.033808947E-1,9.008183479E0
3.564163765E0,6.763619930E-2,4.602852762E-1,8.763975143E0
3.566161630E0,1.011550203E-1,2.448071241E-1,9.822212219E0
3.568159547E0,1.059434265E-1,1.873462796E-1,1.005684471E1
3.570157515E0,1.394622475E-1,1.155202314E-1,9.970652580E0
3.572155536E0,2.064998895E-1,3.070563674E-1,1.053568459E1
3.574153609E0,2.112883031E-1,7.044938207E-1,8.960299492E0
3.576151734E0,2.064998895E-1,4.794389009E-1,8.749609947E0
3.578149911E0,1.203086376E-1,3.890577704E-2,1.016218948E1
3.580148140E0,1.681926697E-1,-2.244564146E-1,1.065060616E1
3.582146369E0,1.634042710E-1,-3.292027488E-2,9.941922188E0
3.584144599E0,1.586158574E-1,2.831143439E-1,9.549273491E0
3.586142828E0,1.538274586E-1,1.538274586E-1,9.396044731E0
3.588141057E0,1.825578809E-1,2.687491477E-1,9.467870712E0
3.590139286E0,1.873462796E-1,1.394622475E-1,9.692925453E0
3.592137515E0,1.969230920E-1,-3.292027488E-2,9.779116631E0
3.594135588E0,1.873462796E-1,5.386953708E-3,1.006642151E1
3.596133609E0,2.352303118E-1,5.985504249E-4,9.961075783E0
3.598131630E0,2.017114908E-1,2.687491477E-1,9.281123161E0
3.600129651E0,2.352303118E-1,2.735375464E-1,9.635464668E0
3.602127672E0,1.490390599E-1,3.890577704E-2,8.850166321E0
3.604125692E0,7.242459804E-2,-7.128735781E-1,1.003769016E1
3.606123713E0,2.017114908E-1,-5.835866928E-1,1.192432117E1
3.608121734E0,2.448071241E-1,9.157821536E-2,1.005684471E1
3.610119755E0,2.352303118E-1,6.039373875E-1,8.898050308E0
3.612117776E0,1.490390599E-1,5.177460909E-1,8.519766808E0
3.614115797E0,9.157821536E-2,3.890577704E-2,9.381679535E0
3.616113817E0,3.411737457E-2,-1.478419602E-1,9.985017776E0
3.618111838E0,1.011550203E-1,-4.782418013E-1,1.020528507E1
3.620109859E0,1.538274586E-1,-2.771288455E-1,1.019570827E1
3.622107880E0,1.538274586E-1,1.969230920E-1,9.142259598E0
3.624105901E0,1.298854351E-1,2.256535143E-1,8.653841972E0
3.626103922E0,1.394622475E-1,-2.340332121E-1,1.041597462E1
3.628101942E0,1.538274586E-1,-2.244564146E-1,1.027711105E1
3.630099963E0,1.203086376E-1,-2.100912035E-1,9.865307808E0
3.632098036E0,1.538274586E-1,-1.334767491E-1,9.836577415E0
3.634096161E0,1.059434265E-1,-2.531868219E-1,9.956287384E0
3.636094338E0,4.848258570E-2,-2.244564146E-1,9.836577415E0
3.638092567E0,1.496376097E-2,-1.622071713E-1,9.578003883E0
3.640090849E0,-9.995792061E-2,-3.202244639E-1,9.362525940E0
3.642089130E0,-6.643909961E-2,-2.867056429E-1,9.731232643E0
3.644087411E0,5.985504249E-4,-6.165069342E-2,9.132682800E0
3.646085692E0,-5.207388848E-2,-2.675520480E-1,9.338583946E0
3.648083974E0,-5.686229095E-2,-4.590881765E-1,1.002811337E1
3.650081734E0,-8.978256024E-3,-2.388216257E-1,9.798270226E0
3.652079494E0,5.985504249E-4,-3.920505345E-1,1.011430550E1
3.654077255E0,-8.978256024E-3,-1.526303589E-1,1.003769016E1
3.656075015E0,2.454056777E-2,1.394622475E-1,9.357737541E0
3.658072776E0,-8.080431074E-2,-3.345896900E-1,1.011430550E1
3.660070536E0,-1.526303589E-1,-2.196680009E-1,1.070806694E1
3.662068297E0,-1.238999367E-1,9.157821536E-2,9.405621529E0
3.664066057E0,-2.100912035E-1,1.490390599E-1,8.840589523E0
3.666063817E0,-2.148796022E-1,-1.855506375E-2,9.625887871E0
3.668061630E0,-1.813607812E-1,-2.483984232E-1,1.025795746E1
3.670059494E0,-9.038111567E-2,-2.962824702E-1,1.035372543E1
3.672057411E0,-5.207388848E-2,1.873462796E-1,1.015740108E1
3.674055328E0,-2.334346622E-2,4.459200799E-1,8.783128738E0
3.676053244E0,-3.292027488E-2,8.200141042E-2,9.123106003E0
3.678051161E0,-8.080431074E-2,3.890577704E-2,1.000417137E1
3.680049078E0,-4.189853091E-3,3.262099922E-1,9.381679535E0
3.682046994E0,-9.516951442E-2,-4.249707982E-2,9.999382973E0
3.684044911E0,-9.038111567E-2,-1.909375787E-1,1.027711105E1
3.686042672E0,-6.643909961E-2,-3.770867735E-2,9.865307808E0
3.688040432E0,-1.143231317E-1,-8.080431074E-2,9.621099472E0
3.690038192E0,-9.516951442E-2,1.681926697E-1,9.396044731E0
3.692035953E0,-8.080431074E-2,3.118447661E-1,9.731232643E0
3.694033609E0,-5.207388848E-2,8.678980917E-2,9.750386238E0
3.696031265E0,-8.559270948E-2,1.011550203E-1,9.549273491E0
3.698028922E0,-6.643909961E-2,1.059434265E-1,9.668983459E0
3.700026578E0,-1.143231317E-1,-3.106476665E-1,1.041597462E1
3.702024234E0,-8.559270948E-2,-1.957259923E-1,1.018613148E1
3.704021890E0,-5.686229095E-2,8.678980917E-2,9.410409927E0
3.706019547E0,-1.622071713E-1,-8.080431074E-2,9.108740807E0
3.708017255E0,-1.669955701E-1,-2.627636492E-1,9.740809441E0
3.710015015E0,-6.643909961E-2,-2.388216257E-1,1.024838066E1
3.712012828E0,-7.122749835E-2,-1.382651478E-1,9.616311073E0
3.714010692E0,-9.995792061E-2,6.284779310E-2,9.463082314E0
3.716008557E0,-6.165069342E-2,1.921346933E-1,9.027337074E0
3.718006422E0,-6.643909961E-2,-8.559270948E-2,9.285911560E0
3.720004286E0,-1.095347255E-1,-5.452794433E-1,1.014782429E1
3.722002151E0,-7.601590455E-2,-4.542997777E-1,1.032499504E1
3.724000015E0,-5.207388848E-2,-1.622071713E-1,9.850942612E0
3.725997880E0,-5.207388848E-2,-3.250128925E-1,9.405621529E0
3.727995588E0,-8.080431074E-2,-3.681085110E-1,9.836577415E0
3.729993192E0,-3.292027488E-2,-7.601590455E-2,9.850942612E0
3.731990797E0,1.496376097E-2,5.985504249E-4,9.539696693E0
3.733988401E0,-4.189853091E-3,-1.238999367E-1,9.812635422E0
3.735986005E0,5.386953708E-3,-1.238999367E-1,1.005684471E1
3.737983609E0,-2.334346622E-2,-1.478419602E-1,9.894038200E0
3.739981213E0,-9.516951442E-2,3.890577704E-2,9.654618263E0
3.741978869E0,-1.286883354E-1,6.763619930E-2,9.587580681E0
3.743976578E0,-1.957259923E-1,-1.430535465E-1,9.563638687E0
3.745974338E0,-2.388216257E-1,-1.909375787E-1,1.009994030E1
3.747972151E0,-1.957259923E-1,-2.334346622E-2,9.453505516E0
3.749970015E0,-2.627636492E-1,-5.207388848E-2,9.343372345E0
3.751967880E0,-2.962824702E-1,-2.962824702E-1,1.001853657E1
3.753965744E0,-2.436100245E-1,-2.148796022E-1,1.020049667E1
3.755963609E0,-2.531868219E-1,-3.770867735E-2,9.783905029E0
3.757961474E0,-2.531868219E-1,-8.559270948E-2,9.510966301E0
3.759959338E0,-2.627636492E-1,-7.601590455E-2,9.736021042E0
3.761957203E0,-2.388216257E-1,-6.643909961E-2,9.578003883E0
3.763955067E0,-2.579752207E-1,-7.122749835E-2,9.281123161E0
3.765952932E0,-2.244564146E-1,-2.100912035E-1,9.740809441E0
3.767950797E0,-2.244564146E-1,-3.585317135E-1,9.946710587E0
3.769948661E0,-2.340332121E-1,-3.345896900E-1,9.649829865E0
3.771946526E0,-2.148796022E-1,-4.878185987E-1,9.846154213E0
3.773944390E0,-2.148796022E-1,-5.740098357E-1,1.007120991E1
3.775942255E0,-2.292448133E-1,-3.010708690E-1,9.448717117E0
3.777939963E0,-1.861491799E-1,-4.734533727E-1,9.132682800E0
3.779937672E0,-1.909375787E-1,-7.799112201E-1,1.035372543E1
3.781935380E0,-1.430535465E-1,-5.165489912E-1,1.019570827E1
3.783933088E0,-2.005143911E-1,-2.627636492E-1,8.878896713E0
3.785930797E0,-1.717839688E-1,-4.734533727E-1,9.458293915E0
3.787928505E0,-1.430535465E-1,-8.325836658E-1,9.917980194E0
3.789926213E0,-9.516951442E-2,-7.894880176E-1,1.038245583E1
3.791923974E0,-9.516951442E-2,-7.559691668E-1,9.932345390E0
3.793921786E0,-8.080431074E-2,-5.357026458E-1,9.506177902E0
3.795919651E0,-1.047463268E-1,-3.154360652E-1,9.568427086E0
3.797917567E0,-1.334767491E-1,-4.447229803E-1,9.506177902E0
3.799915536E0,-2.148796022E-1,-5.165489912E-1,9.601945877E0
3.801913505E0,-2.723404467E-1,-5.357026458E-1,9.745597839E0
3.803911474E0,-3.058592677E-1,-5.883750916E-1,9.894038200E0
3.805909442E0,-2.292448133E-1,-4.016273320E-1,9.668983459E0
3.807907411E0,-2.483984232E-1,-2.627636492E-1,9.199720383E0
3.809905380E0,-2.436100245E-1,-5.165489912E-1,9.965864182E0
3.811903192E0,-1.382651478E-1,-4.590881765E-1,1.049737740E1
3.813900849E0,-2.053027898E-1,-3.292027488E-2,9.678560257E0
3.815898505E0,-2.244564146E-1,1.969230920E-1,9.070432663E0
3.817896161E0,-1.430535465E-1,-1.382651478E-1,9.745597839E0
3.819893817E0,-8.559270948E-2,-4.878185987E-1,1.031062984E1
3.821891474E0,-3.292027488E-2,-3.681085110E-1,1.016218948E1
3.823889130E0,-1.855506375E-2,-2.579752207E-1,9.482235909E0
3.825886786E0,-4.249707982E-2,-3.154360652E-1,9.592369080E0
3.827884442E0,5.985504249E-4,-2.962824702E-1,9.716867447E0
3.829882099E0,9.157821536E-2,-4.447229803E-1,1.005684471E1
3.831879807E0,9.157821536E-2,-4.255693555E-1,1.019091988E1
3.833877567E0,4.848258570E-2,-2.483984232E-1,9.443928719E0
3.835875380E0,-1.376665942E-2,-1.957259923E-1,9.170989990E0
3.837873244E0,4.369417951E-2,-2.148796022E-1,9.357737541E0
3.839871109E0,1.442506462E-1,-3.968389332E-1,9.678560257E0
3.841868974E0,1.586158574E-1,-3.776853085E-1,9.836577415E0
3.843866838E0,1.155202314E-1,-3.776853085E-1,9.932345390E0
3.845864703E0,1.681926697E-1,-4.447229803E-1,9.850942612E0
3.847862567E0,1.586158574E-1,-4.495113790E-1,9.975440979E0
3.849860432E0,9.157821536E-2,-3.776853085E-1,9.884461403E0
3.851858297E0,6.284779310E-2,-2.388216257E-1,9.386467934E0
3.853856161E0,9.157821536E-2,-4.686649740E-1,9.803058624E0
3.855853974E0,1.155202314E-1,-5.069721937E-1,1.013824749E1
3.857851630E0,6.284779310E-2,-3.154360652E-1,9.707290649E0
3.859849234E0,3.411737457E-2,-3.681085110E-1,9.731232643E0
3.861846838E0,1.017535757E-2,-3.776853085E-1,9.817423820E0
3.863844442E0,-5.207388848E-2,-4.016273320E-1,9.716867447E0
3.865842047E0,1.496376097E-2,-4.734533727E-1,9.745597839E0
3.867839651E0,1.975216344E-2,-4.399345517E-1,9.850942612E0
3.869837255E0,-4.189853091E-3,-3.441664875E-1,9.520543098E0
3.871834859E0,3.890577704E-2,-2.436100245E-1,9.434351921E0
3.873832463E0,1.059434265E-1,-3.393780887E-1,9.692925453E0
3.875830067E0,1.634042710E-1,-3.537433147E-1,9.932345390E0
3.877827672E0,1.969230920E-1,-2.340332121E-1,9.764751434E0
3.879825276E0,2.208651006E-1,-2.292448133E-1,9.520543098E0
3.881822880E0,2.639607489E-1,-2.867056429E-1,9.774328232E0
3.883820484E0,3.118447661E-1,-2.148796022E-1,9.841365814E0
3.885818088E0,3.214215636E-1,-1.382651478E-1,9.654618263E0
3.887815744E0,3.214215636E-1,-3.770867735E-2,9.836577415E0
3.889813453E0,2.735375464E-1,3.890577704E-2,9.855731010E0
3.891811213E0,2.591723204E-1,1.394622475E-1,9.396044731E0
3.893809026E0,2.017114908E-1,2.932897024E-2,9.563638687E0
3.895806838E0,1.681926697E-1,-1.622071713E-1,1.003769016E1
3.897804703E0,1.107318252E-1,-9.995792061E-2,1.009036350E1
3.899802567E0,1.203086376E-1,1.346738487E-1,9.520543098E0
3.901800484E0,1.107318252E-1,1.586158574E-1,9.415198326E0
3.903798401E0,6.284779310E-2,1.017535757E-2,9.640253067E0
3.905796317E0,3.890577704E-2,-1.957259923E-1,9.855731010E0
3.907794234E0,7.242459804E-2,-2.053027898E-1,9.855731010E0
3.909792151E0,3.411737457E-2,-1.382651478E-1,9.721655846E0
3.911790067E0,-1.376665942E-2,-9.038111567E-2,9.745597839E0
3.913787984E0,-3.292027488E-2,-3.770867735E-2,9.731232643E0
3.915785901E0,-3.292027488E-2,2.932897024E-2,9.798270226E0
3.917783609E0,-2.813187055E-2,4.369417951E-2,9.520543098E0
3.919781317E0,-5.207388848E-2,-5.686229095E-2,1.000417137E1
3.921779026E0,-2.334346622E-2,3.890577704E-2,1.011430550E1
3.923776734E0,-4.728548229E-2,1.777694821E-1,9.573215485E0
3.925774442E0,-4.189853091E-3,2.112883031E-1,9.515754700E0
3.927772151E0,-8.978256024E-3,1.634042710E-1,9.707290649E0
3.929769755E0,-4.728548229E-2,5.327098817E-2,9.640253067E0
3.931767359E0,-7.601590455E-2,-8.559270948E-2,9.793481827E0
3.933764963E0,-6.643909961E-2,-1.855506375E-2,9.841365814E0
3.935762567E0,-6.643909961E-2,5.985504249E-4,9.841365814E0
3.937760172E0,-1.376665942E-2,2.064998895E-1,9.707290649E0
3.939757776E0,-2.813187055E-2,2.208651006E-1,9.467870712E0
3.941755380E0,-3.770867735E-2,5.805939063E-2,9.659406662E0
3.943752984E0,-2.813187055E-2,-9.516951442E-2,9.970652580E0
3.945750588E0,-3.770867735E-2,-1.430535465E-1,1.001374817E1
3.947748192E0,-4.189853091E-3,-3.292027488E-2,9.827000618E0
3.949745797E0,1.017535757E-2,-2.334346622E-2,9.630676270E0
3.951743401E0,3.411737457E-2,5.327098817E-2,9.645041466E0
3.953741005E0,3.890577704E-2,1.496376097E-2,9.487024307E0
3.955738661E0,5.386953708E-3,-6.643909961E-2,9.721655846E0
3.957736369E0,2.932897024E-2,-2.292448133E-1,9.932345390E0
3.959734078E0,8.678980917E-2,-1.717839688E-1,9.975440979E0
3.961731786E0,9.636662155E-2,-4.189853091E-3,9.721655846E0
3.963729494E0,1.203086376E-1,8.200141042E-2,9.400833130E0
3.965727203E0,1.155202314E-1,8.200141042E-2,9.525331497E0
3.967724911E0,1.825578809E-1,3.411737457E-2,9.726444244E0
3.969722619E0,2.064998895E-1,5.805939063E-2,9.692925453E0
3.971720328E0,1.969230920E-1,-6.643909961E-2,9.783905029E0
3.973718036E0,2.256535143E-1,-9.995792061E-2,1.001853657E1
3.975715744E0,2.735375464E-1,1.975216344E-2,9.659406662E0
3.977713505E0,3.166331649E-1,4.848258570E-2,9.654618263E0
3.979711317E0,3.214215636E-1,-3.770867735E-2,9.817423820E0
3.981709182E0,3.214215636E-1,-2.334346622E-2,9.879673004E0
3.983707047E0,2.352303118E-1,9.157821536E-2,9.774328232E0
3.985704911E0,2.208651006E-1,1.155202314E-1,9.510966301E0
3.987702776E0,1.442506462E-1,6.284779310E-2,9.721655846E0
3.989700640E0,1.107318252E-1,1.011550203E-1,9.625887871E0
3.991698505E0,1.394622475E-1,9.636662155E-2,9.525331497E0
3.993696369E0,1.586158574E-1,1.203086376E-1,9.688137054E0
3.995694234E0,1.394622475E-1,4.369417951E-2,9.793481827E0
3.997692099E0,1.203086376E-1,-9.038111567E-2,9.927556992E0
3.999689963E0,8.200141042E-2,-1.622071713E-1,9.980229378E0
4.001687828E0,4.369417951E-2,-2.005143911E-1,9.812635422E0
4.003685328E0,6.763619930E-2,-1.478419602E-1,9.659406662E0
4.005682828E0,3.890577704E-2,-1.861491799E-1,9.515754700E0
4.007680328E0,5.985504249E-4,-1.717839688E-1,9.558850288E0
4.009677828E0,-1.376665942E-2,-1.861491799E-1,9.712079048E0
4.011675328E0,4.369417951E-2,-2.148796022E-1,9.750386238E0
4.013672828E0,5.985504249E-4,-3.489548862E-1,9.965864182E0
4.015670328E0,5.386953708E-3,-2.627636492E-1,9.846154213E0
4.017667828E0,9.636662155E-2,-1.622071713E-1,9.563638687E0
4.019665328E0,1.203086376E-1,-2.053027898E-1,9.510966301E0
4.021662828E0,1.203086376E-1,-2.867056429E-1,9.659406662E0
4.023660328E0,1.825578809E-1,-3.633201122E-1,9.870096207E0
4.025657880E0,2.160767019E-1,-2.962824702E-1,9.649829865E0
4.027655484E0,2.495955229E-1,-4.686649740E-1,9.759963036E0
4.029653140E0,2.879027426E-1,-5.213374496E-1,9.913191795E0
4.031650849E0,3.405751884E-1,-5.740098357E-1,9.889249802E0
4.033648609E0,3.884592354E-1,-4.878185987E-1,9.769539833E0
4.035646422E0,4.219780564E-1,-4.255693555E-1,9.467870712E0
4.037644286E0,4.507084787E-1,-4.926069975E-1,9.769539833E0
4.039642203E0,4.507084787E-1,-5.357026458E-1,9.841365814E0
4.041640172E0,4.411316514E-1,-5.500678420E-1,9.736021042E0
4.043638140E0,3.788824081E-1,-5.979518890E-1,9.726444244E0
4.045636109E0,3.740940094E-1,-5.883750916E-1,9.740809441E0
4.047634078E0,3.597288132E-1,-5.069721937E-1,9.812635422E0
4.049632047E0,3.501519859E-1,-4.303577542E-1,9.731232643E0
4.051630015E0,3.070563674E-1,-4.542997777E-1,9.582792282E0
4.053627984E0,2.639607489E-1,-5.213374496E-1,9.731232643E0
4.055625953E0,2.495955229E-1,-5.644330382E-1,9.726444244E0
4.057623922E0,1.873462796E-1,-5.835866928E-1,9.759963036E0
4.059621890E0,1.298854351E-1,-5.740098357E-1,9.759963036E0
4.061619599E0,9.157821536E-2,-6.027402878E-1,9.630676270E0
4.063617307E0,5.327098817E-2,-6.937199235E-1,9.860519409E0
4.065614911E0,2.932897024E-2,-7.032967210E-1,9.812635422E0
4.067612515E0,-2.813187055E-2,-6.937199235E-1,9.649829865E0
4.069610119E0,-9.516951442E-2,-7.799112201E-1,9.793481827E0
