"Time (s)","Acceleration x (m/s^2)","Acceleration y (m/s^2)","Acceleration z (m/s^2)"
2.211240400E-2,9.157821536E-2,1.442506462E-1,9.611522675E0
2.313698700E-2,1.442506462E-1,1.442506462E-1,9.625887871E0
2.508558100E-2,1.586158574E-1,1.538274586E-1,9.645041466E0
2.705078900E-2,1.298854351E-1,1.681926697E-1,9.664195061E0
2.901599700E-2,9.636662155E-2,1.777694821E-1,9.707290649E0
3.098120600E-2,6.284779310E-2,1.969230920E-1,9.736021042E0
3.294641400E-2,2.932897024E-2,2.160767019E-1,9.745597839E0
3.491162200E-2,-1.855506375E-2,2.208651006E-1,9.750386238E0
3.687683100E-2,-1.855506375E-2,2.352303118E-1,9.783905029E0
3.884203900E-2,2.932897024E-2,2.543839216E-1,9.774328232E0
4.080724700E-2,1.011550203E-1,2.064998895E-1,9.716867447E0
4.277245600E-2,1.490390599E-1,1.346738487E-1,9.817423820E0
4.473766400E-2,1.490390599E-1,2.208651006E-1,9.855731010E0
4.670287200E-2,1.107318252E-1,2.160767019E-1,9.850942612E0
4.866808100E-2,1.011550203E-1,2.495955229E-1,9.860519409E0
5.063328900E-2,7.242459804E-2,2.735375464E-1,9.879673004E0
5.259849700E-2,5.327098817E-2,2.735375464E-1,9.850942612E0
5.456370600E-2,4.848258570E-2,2.735375464E-1,9.865307808E0
5.652891400E-2,4.369417951E-2,2.735375464E-1,9.894038200E0
5.849412200E-2,5.327098817E-2,2.591723204E-1,9.884461403E0
6.045933100E-2,9.157821536E-2,1.394622475E-1,9.865307808E0
6.242453900E-2,1.634042710E-1,1.203086376E-1,9.803058624E0
6.438974700E-2,1.921346933E-1,2.831143439E-1,9.716867447E0
6.635495600E-2,1.155202314E-1,2.639607489E-1,9.755174637E0
6.832016400E-2,1.298854351E-1,2.160767019E-1,9.932345390E0
7.028537200E-2,1.442506462E-1,2.735375464E-1,9.922768593E0
7.225058100E-2,1.107318252E-1,2.974795699E-1,9.917980194E0
7.421578900E-2,7.721300423E-2,3.357867897E-1,9.956287384E0
7.618099700E-2,4.369417951E-2,4.028244317E-1,9.956287384E0
7.814620600E-2,1.017535757E-2,4.985924959E-1,9.956287384E0
8.011141400E-2,-4.189853091E-3,5.608417392E-1,9.937133789E0
8.207662200E-2,-2.813187055E-2,6.039373875E-1,9.946710587E0
8.404240400E-2,-1.376665942E-2,6.135141850E-1,9.961075783E0
8.601006000E-2,-4.189853091E-3,6.039373875E-1,9.970652580E0
8.798073700E-2,5.386953708E-3,5.608417392E-1,9.989806175E0
8.995542400E-2,-3.770867735E-2,5.560533404E-1,9.956287384E0
9.193490400E-2,-9.995792061E-2,6.326677799E-1,9.894038200E0
9.391969500E-2,-1.334767491E-1,6.613982320E-1,9.894038200E0
9.591016400E-2,-1.909375787E-1,8.002619147E-1,9.855731010E0
9.790641400E-2,-2.340332121E-1,1.154603720E0,9.836577415E0
9.990828900E-2,-1.813607812E-1,1.279102206E0,9.807847023E0
1.019154240E-1,-1.669955701E-1,1.293467522E0,9.870096207E0
1.039272470E-1,-1.478419602E-1,1.264737010E0,9.956287384E0
1.059430290E-1,-1.861491799E-1,1.259948611E0,9.985017776E0
1.079619350E-1,-1.622071713E-1,1.226429820E0,9.994594574E0
1.099829760E-1,-1.717839688E-1,1.154603720E0,9.946710587E0
1.120051640E-1,-1.191115379E-1,1.183334231E0,9.865307808E0
1.140275080E-1,-1.095347255E-1,1.149815321E0,9.788693428E0
1.160303200E-1,-9.516951442E-2,1.111508131E0,9.779116631E0
1.180284450E-1,-8.080431074E-2,1.010951638E0,9.774328232E0
1.200265700E-1,-8.080431074E-2,9.487023950E-1,9.783905029E0
1.220245910E-1,-3.770867735E-2,9.103952050E-1,9.716867447E0
1.240226120E-1,-1.855506375E-2,8.912416101E-1,9.731232643E0
1.260206330E-1,5.985504249E-4,7.763199210E-1,9.702502251E0
1.280186540E-1,4.848258570E-2,7.523778677E-1,9.654618263E0
1.300166740E-1,3.411737457E-2,6.518214345E-1,9.621099472E0
1.320146950E-1,7.242459804E-2,6.805518270E-1,9.640253067E0
1.340127160E-1,7.721300423E-2,6.853402257E-1,9.678560257E0
1.360107890E-1,6.284779310E-2,7.236474752E-1,9.597157478E0
1.380089140E-1,3.411737457E-2,7.523778677E-1,9.587580681E0
1.400070910E-1,4.369417951E-2,8.002619147E-1,9.659406662E0
1.420053200E-1,5.327098817E-2,8.433575630E-1,9.721655846E0
1.440036010E-1,2.454056777E-2,8.672995567E-1,9.793481827E0
1.460019350E-1,4.848258570E-2,8.816647530E-1,9.769539833E0
1.480002680E-1,5.386953708E-3,8.577227592E-1,9.788693428E0
1.499986010E-1,-4.189853091E-3,8.529343605E-1,9.764751434E0
1.519969870E-1,2.454056777E-2,9.199720025E-1,9.707290649E0
1.539954240E-1,-8.978256024E-3,1.020528436E0,9.740809441E0
1.559939140E-1,-3.292027488E-2,9.822212458E-1,9.606734276E0
1.579924040E-1,-4.728548229E-2,9.534908533E-1,9.640253067E0
1.599908930E-1,-5.207388848E-2,9.056068063E-1,9.688137054E0
1.619893830E-1,5.386953708E-3,8.816647530E-1,9.688137054E0
1.639878720E-1,5.327098817E-2,7.954735160E-1,9.774328232E0
1.659863620E-1,8.678980917E-2,7.811083198E-1,9.879673004E0
1.679848510E-1,1.921346933E-1,8.337807655E-1,9.726444244E0
1.699830810E-1,1.825578809E-1,8.242039084E-1,9.630676270E0
1.719813100E-1,1.825578809E-1,7.667431235E-1,9.645041466E0
1.739795390E-1,2.160767019E-1,8.002619147E-1,9.755174637E0
1.759777680E-1,1.873462796E-1,7.667431235E-1,9.759963036E0
1.779759970E-1,1.777694821E-1,7.715315223E-1,9.721655846E0
1.799742260E-1,1.681926697E-1,8.577227592E-1,9.793481827E0
1.819724560E-1,1.490390599E-1,9.295488000E-1,9.668983459E0
1.839706850E-1,1.250970364E-1,9.103952050E-1,9.539696693E0
1.859689660E-1,7.242459804E-2,9.247604012E-1,9.625887871E0
1.879672990E-1,1.017535757E-2,8.577227592E-1,9.645041466E0
1.899656850E-1,-2.813187055E-2,8.098387122E-1,9.774328232E0
1.919641220E-1,-8.559270948E-2,6.805518270E-1,9.917980194E0
1.939626120E-1,-5.207388848E-2,8.194155097E-1,9.774328232E0
1.959611540E-1,-7.601590455E-2,8.242039084E-1,9.554061890E0
1.979596950E-1,-3.770867735E-2,8.050503135E-1,9.597157478E0
1.999582370E-1,1.496376097E-2,8.768763542E-1,9.645041466E0
2.019567790E-1,-4.189853091E-3,8.385691643E-1,9.697713852E0
2.039553200E-1,-1.855506375E-2,8.002619147E-1,9.582792282E0
2.059538620E-1,6.284779310E-2,7.380126715E-1,9.472659111E0
2.079524040E-1,1.442506462E-1,8.337807655E-1,9.467870712E0
2.099509450E-1,1.969230920E-1,8.194155097E-1,9.439140320E0
2.119492260E-1,2.017114908E-1,7.236474752E-1,9.448717117E0
2.139475080E-1,2.926911712E-1,7.428010702E-1,9.530119896E0
2.159456850E-1,3.357867897E-1,7.236474752E-1,9.496601105E0
2.179438620E-1,2.735375464E-1,6.805518270E-1,9.463082314E0
2.199420390E-1,2.687491477E-1,6.183025837E-1,9.309853554E0
2.219402160E-1,2.783259451E-1,6.039373875E-1,9.381679535E0
2.239383930E-1,2.400187254E-1,6.661866307E-1,9.568427086E0
2.259365700E-1,3.070563674E-1,6.422445774E-1,9.515754700E0
2.279347470E-1,3.118447661E-1,6.422445774E-1,9.534908295E0
2.299329240E-1,3.262099922E-1,7.092822790E-1,9.539696693E0
2.319311010E-1,3.309983909E-1,8.194155097E-1,9.549273491E0
2.339292790E-1,4.554968774E-1,9.917980433E-1,9.587580681E0
2.359274560E-1,4.842272997E-1,1.168969035E0,9.472659111E0
2.379256330E-1,4.076128304E-1,1.269525409E0,9.434351921E0
2.399238100E-1,3.405751884E-1,1.140238523E0,9.419986725E0
2.419219870E-1,3.262099922E-1,9.965864420E-1,9.831789017E0
2.439201640E-1,3.788824081E-1,1.058835745E0,1.026274586E1
2.459183410E-1,3.693056107E-1,1.451484799E0,1.041118622E1
2.479165180E-1,2.735375464E-1,1.710058570E0,9.956287384E0
2.499146950E-1,-1.622071713E-1,1.619078875E0,9.534908295E0
2.519128720E-1,-2.579752207E-1,1.441908002E0,9.635464668E0
2.539110490E-1,-3.537433147E-1,1.346139908E0,1.004247856E1
2.559092260E-1,-3.920505345E-1,1.207276225E0,1.010472870E1
2.579074040E-1,-3.250128925E-1,1.264737010E0,1.033936024E1
2.599055810E-1,-3.345896900E-1,1.379658699E0,1.026753426E1
2.619037580E-1,-3.298012912E-1,1.288679123E0,1.004726696E1
2.639019350E-1,-2.627636492E-1,1.312621117E0,1.007599831E1
2.659001120E-1,-1.669955701E-1,1.394023895E0,1.004726696E1
2.678983410E-1,-1.526303589E-1,1.398812294E0,9.951498985E0
2.698966220E-1,-1.191115379E-1,1.346139908E0,9.965864182E0
2.718949560E-1,-9.038111567E-2,1.346139908E0,9.994594574E0
2.738933410E-1,-1.095347255E-1,1.288679123E0,9.917980194E0
2.758917790E-1,-9.516951442E-2,1.173757434E0,9.946710587E0
2.778902680E-1,-4.728548229E-2,1.212064624E0,9.989806175E0
2.798888100E-1,-8.978256024E-3,1.173757434E0,9.903614998E0
2.818874040E-1,-4.189853091E-3,1.068412542E0,9.836577415E0
2.838860490E-1,1.059434265E-1,1.159392118E0,1.011430550E1
2.858846950E-1,1.681926697E-1,1.216853023E0,9.908403397E0
2.878833410E-1,1.681926697E-1,1.001374841E0,9.697713852E0
2.898819870E-1,2.352303118E-1,1.068412542E0,9.898826599E0
2.918806330E-1,2.591723204E-1,1.188122630E0,9.970652580E0
2.938790700E-1,2.400187254E-1,1.006163239E0,9.788693428E0
2.958771950E-1,2.735375464E-1,1.101931334E0,1.000417137E1
2.978753200E-1,2.926911712E-1,1.178545833E0,9.884461403E0
2.998734450E-1,2.352303118E-1,1.092354536E0,9.611522675E0
3.018715700E-1,2.256535143E-1,9.247604012E-1,9.429563522E0
3.038696950E-1,2.017114908E-1,9.008184075E-1,9.769539833E0
3.058678200E-1,1.634042710E-1,9.199720025E-1,9.736021042E0
3.078659450E-1,2.064998895E-1,7.092822790E-1,9.554061890E0
3.098640700E-1,1.921346933E-1,6.326677799E-1,9.697713852E0
3.118621950E-1,1.442506462E-1,5.752069354E-1,9.712079048E0
3.138603720E-1,-1.376665942E-2,2.495955229E-1,9.568427086E0
3.158586010E-1,3.890577704E-2,2.543839216E-1,9.793481827E0
3.178568830E-1,1.873462796E-1,4.267664552E-1,9.659406662E0
3.198552160E-1,2.256535143E-1,3.453635871E-1,9.319430351E0
3.218536010E-1,1.107318252E-1,1.394622475E-1,9.558850288E0
3.238520390E-1,2.448071241E-1,3.597288132E-1,9.803058624E0
3.258504760E-1,2.112883031E-1,2.208651006E-1,9.419986725E0
3.278489140E-1,1.681926697E-1,4.369417951E-2,9.300276756E0
3.298473510E-1,2.448071241E-1,2.352303118E-1,9.506177902E0
3.318457890E-1,2.112883031E-1,1.394622475E-1,9.333795547E0
3.338442260E-1,1.729810685E-1,1.107318252E-1,9.094375610E0
3.358426640E-1,1.681926697E-1,-1.047463268E-1,8.989029884E0
3.378411010E-1,2.304419130E-1,-1.047463268E-1,9.309853554E0
3.398395390E-1,3.645172119E-1,-7.122749835E-2,9.190143585E0
3.418379760E-1,3.405751884E-1,-2.292448133E-1,9.127894402E0
3.438364140E-1,3.309983909E-1,-3.872621357E-1,9.123106003E0
3.458348510E-1,4.267664552E-1,-1.669955701E-1,9.544485092E0
3.478332890E-1,4.171896577E-1,5.985504249E-4,9.487024307E0
3.498317260E-1,2.974795699E-1,-1.143231317E-1,9.123106003E0
3.518300080E-1,2.495955229E-1,-3.106476665E-1,8.993818283E0
3.538280810E-1,2.304419130E-1,-1.669955701E-1,9.654618263E0
3.558261540E-1,2.879027426E-1,-1.574187577E-1,9.702502251E0
3.578242260E-1,2.783259451E-1,-1.382651478E-1,9.803058624E0
3.598222990E-1,2.831143439E-1,6.763619930E-2,9.731232643E0
3.618203720E-1,1.394622475E-1,1.017535757E-2,9.783905029E0
3.638184450E-1,7.721300423E-2,1.298854351E-1,9.798270226E0
3.658165700E-1,1.250970364E-1,1.634042710E-1,1.017655468E1
3.678147470E-1,9.157821536E-2,3.214215636E-1,1.023880386E1
3.698129760E-1,5.386953708E-3,3.740940094E-1,1.036809063E1
3.718112580E-1,-3.770867735E-2,5.321113467E-1,1.026274586E1
3.738095910E-1,-1.765723825E-1,4.171896577E-1,1.012388229E1
3.758079760E-1,-2.579752207E-1,5.560533404E-1,1.042076302E1
3.778064140E-1,-2.962824702E-1,7.236474752E-1,1.014782429E1
3.798049040E-1,-2.675520480E-1,6.661866307E-1,9.903614998E0
3.818034450E-1,-3.537433147E-1,4.746504724E-1,1.018134308E1
3.838020390E-1,-3.489548862E-1,5.033808947E-1,1.022922707E1
3.858006850E-1,-3.345896900E-1,1.729810685E-1,1.048780060E1
3.877993310E-1,-2.914940715E-1,5.129576921E-1,1.009994030E1
3.897979760E-1,-3.154360652E-1,3.788824081E-1,9.793481827E0
3.917966220E-1,-3.106476665E-1,5.386953708E-3,9.999382973E0
3.937952680E-1,-2.531868219E-1,2.831143439E-1,9.894038200E0
3.957939140E-1,-1.622071713E-1,4.363432527E-1,9.645041466E0
3.977925600E-1,-1.095347255E-1,-1.430535465E-1,9.400833130E0
3.997912060E-1,-1.478419602E-1,-1.191115379E-1,9.898826599E0
4.017897990E-1,4.369417951E-2,-4.249707982E-2,9.889249802E0
4.037882890E-1,1.250970364E-1,-2.100912035E-1,9.683348656E0
4.057866740E-1,1.394622475E-1,-1.095347255E-1,9.774328232E0
4.077850600E-1,1.873462796E-1,-1.622071713E-1,9.515754700E0
4.097834450E-1,1.634042710E-1,-2.771288455E-1,9.424775124E0
4.117818310E-1,1.681926697E-1,-1.095347255E-1,9.396044731E0
4.137800600E-1,1.490390599E-1,-2.388216257E-1,9.300276756E0
4.157782890E-1,1.490390599E-1,-2.196680009E-1,9.463082314E0
4.177765180E-1,2.017114908E-1,-2.340332121E-1,9.587580681E0
4.197747470E-1,1.825578809E-1,-1.717839688E-1,9.736021042E0
4.217729760E-1,1.777694821E-1,-1.526303589E-1,9.405621529E0
4.237712060E-1,1.394622475E-1,-3.106476665E-1,9.688137054E0
4.257694350E-1,1.346738487E-1,-2.771288455E-1,9.889249802E0
4.277676640E-1,1.777694821E-1,-4.189853091E-3,9.822212219E0
4.297658930E-1,1.873462796E-1,5.805939063E-2,9.467870712E0
4.317641220E-1,2.112883031E-1,-5.207388848E-2,9.233239174E0
4.337623510E-1,1.777694821E-1,2.932897024E-2,9.372102737E0
4.357605810E-1,2.831143439E-1,-4.728548229E-2,9.482235909E0
4.377588100E-1,3.501519859E-1,-1.430535465E-1,9.664195061E0
4.397570390E-1,4.124012291E-1,-1.622071713E-1,9.817423820E0
4.417552680E-1,4.171896577E-1,-3.633201122E-1,9.870096207E0
4.437534970E-1,3.884592354E-1,-3.489548862E-1,9.913191795E0
4.457517260E-1,4.411316514E-1,-1.957259923E-1,9.989806175E0
4.477500080E-1,4.650736749E-1,-2.100912035E-1,9.855731010E0
4.497483410E-1,3.836708367E-1,-3.154360652E-1,9.692925453E0
4.517466740E-1,2.783259451E-1,-3.441664875E-1,9.874884605E0
4.537450080E-1,2.543839216E-1,-5.207388848E-2,9.372102737E0
4.557433410E-1,2.064998895E-1,-1.238999367E-1,9.132682800E0
4.577416740E-1,2.256535143E-1,-3.968389332E-1,9.501389503E0
4.597400080E-1,1.538274586E-1,-4.495113790E-1,9.635464668E0
4.617383410E-1,1.538274586E-1,-5.021837950E-1,9.889249802E0
4.637366740E-1,2.160767019E-1,-2.531868219E-1,9.621099472E0
4.657350080E-1,2.208651006E-1,-5.883750916E-1,9.874884605E0
4.677333410E-1,2.112883031E-1,-7.846996188E-1,1.060272217E1
4.697316740E-1,1.873462796E-1,-2.340332121E-1,9.668983459E0
4.717296950E-1,6.763619930E-2,-5.686229095E-2,9.056067467E0
4.737277160E-1,2.454056777E-2,-1.574187577E-1,9.175778389E0
4.757257370E-1,-2.813187055E-2,-4.112041295E-1,9.989806175E0
4.777237580E-1,-8.978256024E-3,-2.723404467E-1,1.006163311E1
4.797216220E-1,-5.686229095E-2,-7.601590455E-2,9.740809441E0
4.817194870E-1,-1.669955701E-1,-1.191115379E-1,9.606734276E0
4.837173510E-1,-1.669955701E-1,5.386953708E-3,9.563638687E0
4.857152160E-1,-1.813607812E-1,9.157821536E-2,9.410409927E0
4.877130810E-1,-2.244564146E-1,5.985504249E-4,9.865307808E0
4.897109970E-1,-1.574187577E-1,1.442506462E-1,9.443928719E0
4.917089660E-1,-1.909375787E-1,7.721300423E-2,9.424775124E0
4.937069870E-1,-1.669955701E-1,-3.292027488E-2,9.740809441E0
4.957050600E-1,-1.526303589E-1,1.011550203E-1,9.295488358E0
4.977031850E-1,-1.286883354E-1,1.969230920E-1,8.921992302E0
4.997013620E-1,1.017535757E-2,-2.292448133E-1,9.779116631E0
5.016995910E-1,5.386953708E-3,-4.016273320E-1,9.640253067E0
5.036978200E-1,-4.189853091E-3,-4.447229803E-1,9.855731010E0
5.056960490E-1,5.985504249E-4,-4.782418013E-1,1.010472870E1
5.076942790E-1,3.411737457E-2,-1.861491799E-1,9.448717117E0
5.096925080E-1,8.678980917E-2,-2.771288455E-1,9.458293915E0
5.116907370E-1,4.848258570E-2,-2.723404467E-1,9.400833130E0
5.136890180E-1,7.721300423E-2,-1.574187577E-1,9.108740807E0
5.156872990E-1,1.250970364E-1,-3.681085110E-1,9.419986725E0
5.176855810E-1,9.636662155E-2,-4.686649740E-1,9.664195061E0
5.196838620E-1,6.284779310E-2,6.284779310E-2,8.730456352E0
5.216821430E-1,5.327098817E-2,-1.143231317E-1,8.941145897E0
5.236804240E-1,1.011550203E-1,-7.703344226E-1,1.030584145E1
5.256787060E-1,8.200141042E-2,-5.692214370E-1,9.783905029E0
5.276769870E-1,-3.770867735E-2,9.636662155E-2,8.577227592E0
5.296752680E-1,-1.376665942E-2,6.284779310E-2,8.495824814E0
5.316735490E-1,2.932897024E-2,-5.740098357E-1,9.913191795E0
5.336717260E-1,6.284779310E-2,-6.985083222E-1,1.025795746E1
5.356699040E-1,9.157821536E-2,-1.238999367E-1,9.415198326E0
5.376679240E-1,1.442506462E-1,7.242459804E-2,8.797493935E0
5.396659450E-1,1.586158574E-1,-2.196680009E-1,9.544485092E0
5.416637580E-1,1.490390599E-1,-3.537433147E-1,9.707290649E0
5.436615180E-1,1.107318252E-1,-2.244564146E-1,9.659406662E0
5.456592790E-1,1.155202314E-1,-1.430535465E-1,9.247604370E0
5.476570390E-1,1.250970364E-1,-1.526303589E-1,9.247604370E0
5.496547990E-1,1.250970364E-1,-1.717839688E-1,9.539696693E0
5.516525600E-1,5.327098817E-2,-2.436100245E-1,9.606734276E0
5.536503720E-1,-2.334346622E-2,-1.717839688E-1,9.233239174E0
5.556482370E-1,-9.516951442E-2,-8.080431074E-2,9.319430351E0
5.576461540E-1,-1.334767491E-1,-1.669955701E-1,9.376891136E0
5.596441220E-1,-1.478419602E-1,-3.154360652E-1,9.975440979E0
5.616421430E-1,-1.622071713E-1,-6.643909961E-2,9.381679535E0
5.636402160E-1,-2.100912035E-1,2.017114908E-1,8.898050308E0
5.656383410E-1,-2.962824702E-1,3.411737457E-2,9.333795547E0
5.676365180E-1,-4.495113790E-1,-4.207809567E-1,9.965864182E0
5.696347470E-1,-4.399345517E-1,-4.447229803E-1,1.017655468E1
5.716330290E-1,-5.069721937E-1,-3.770867735E-2,9.185355186E0
5.736313620E-1,-5.644330382E-1,-1.574187577E-1,9.391256332E0
5.756296950E-1,-6.410474777E-1,-2.723404467E-1,9.419986725E0
5.776280290E-1,-6.171054840E-1,-3.202244639E-1,9.621099472E0
5.796263620E-1,-5.979518890E-1,-2.675520480E-1,9.716867447E0
5.816246950E-1,-5.835866928E-1,-2.244564146E-1,9.999382973E0
5.836225080E-1,-5.883750916E-1,-2.100912035E-1,9.755174637E0
5.856203200E-1,-6.745663285E-1,-8.559270948E-2,9.482235909E0
5.876181330E-1,-7.224503756E-1,1.298854351E-1,8.649053574E0
5.896159450E-1,-7.176619768E-1,-1.478419602E-1,9.357737541E0
5.916137580E-1,-6.649895310E-1,-2.292448133E-1,9.774328232E0
5.936115700E-1,-5.548562407E-1,-2.771288455E-1,9.927556992E0
5.956093830E-1,-4.734533727E-1,-2.388216257E-1,1.007599831E1
5.976072470E-1,-5.021837950E-1,-5.686229095E-2,9.812635422E0
5.996051640E-1,-5.357026458E-1,-1.430535465E-1,9.611522675E0
6.016031330E-1,-5.309142470E-1,-2.436100245E-1,9.419986725E0
6.036011540E-1,-5.787982345E-1,7.721300423E-2,9.266757965E0
6.055992260E-1,-5.357026458E-1,-8.978256024E-3,9.362525940E0
6.075973510E-1,-4.399345517E-1,-2.723404467E-1,9.539696693E0
6.095955290E-1,-3.585317135E-1,-3.250128925E-1,9.635464668E0
6.115937580E-1,-2.771288455E-1,-1.047463268E-1,9.491812706E0
6.135920390E-1,-2.148796022E-1,-1.191115379E-1,9.458293915E0
6.155903720E-1,-4.728548229E-2,-3.298012912E-1,9.458293915E0
6.175887580E-1,3.890577704E-2,-6.458359361E-1,1.003290176E1
6.195871950E-1,-4.189853091E-3,-2.340332121E-1,9.372102737E0
6.215856850E-1,-4.189853091E-3,3.890577704E-2,9.012971878E0
6.235842260E-1,7.721300423E-2,-2.340332121E-1,9.477447510E0
6.255827680E-1,9.636662155E-2,-2.914940715E-1,9.827000618E0
6.275813100E-1,6.763619930E-2,2.831143439E-1,9.544485092E0
6.295798510E-1,-9.516951442E-2,5.847837925E-1,7.978677273E0
6.315783930E-1,4.842272997E-1,-1.785475969E0,1.233133602E1
6.335769350E-1,9.157821536E-2,2.926911712E-1,9.846154213E0
6.355751120E-1,5.805939063E-2,1.389235497E0,8.577227592E0
6.375732370E-1,1.969230920E-1,6.613982320E-1,9.142259598E0
6.395713620E-1,3.453635871E-1,-3.154360652E-1,1.173757362E1
6.415694870E-1,1.729810685E-1,6.374561787E-1,1.061708736E1
6.435676120E-1,4.369417951E-2,1.532887697E0,9.008183479E0
6.455657370E-1,1.346738487E-1,1.087566137E0,9.755174637E0
6.475638620E-1,3.405751884E-1,4.794389009E-1,1.150294209E1
6.495619870E-1,3.070563674E-1,8.433575630E-1,1.126352215E1
6.515601120E-1,3.788824081E-1,1.307832718E0,1.053089619E1
6.535582370E-1,4.028244317E-1,1.288679123E0,1.043991661E1
6.555563620E-1,3.357867897E-1,9.774328470E-1,1.092833328E1
6.575544870E-1,4.076128304E-1,1.121084929E0,1.107198620E1
6.595526120E-1,3.645172119E-1,1.432331204E0,1.061708736E1
6.615507370E-1,3.597288132E-1,1.403600693E0,1.042555141E1
6.635489140E-1,2.831143439E-1,1.336563110E0,1.015261269E1
6.655471430E-1,2.448071241E-1,1.020528436E0,1.082777691E1
6.675454240E-1,1.969230920E-1,1.188122630E0,1.024359226E1
6.695437060E-1,1.538274586E-1,1.288679123E0,9.759963036E0
6.715419870E-1,9.636662155E-2,9.822212458E-1,1.012867069E1
6.735402680E-1,2.454056777E-2,9.056068063E-1,1.024838066E1
6.755385490E-1,-7.601590455E-2,1.039682031E0,9.707290649E0
6.775368310E-1,-1.861491799E-1,8.337807655E-1,9.946710587E0
6.795351120E-1,-1.861491799E-1,5.608417392E-1,1.004247856E1
6.815331330E-1,-3.441664875E-1,4.746504724E-1,9.635464668E0
6.835311540E-1,-3.298012912E-1,3.549404144E-1,9.745597839E0
6.855291740E-1,-3.441664875E-1,3.262099922E-1,9.678560257E0
6.875271950E-1,-3.585317135E-1,5.847837925E-1,9.405621529E0
6.895252160E-1,-3.824737072E-1,6.853402257E-1,9.563638687E0
6.915232370E-1,-3.728969097E-1,3.357867897E-1,9.381679535E0
6.935212580E-1,-3.633201122E-1,1.496376097E-2,9.807847023E0
6.955192790E-1,-2.340332121E-1,1.059434265E-1,9.917980194E0
6.975173510E-1,-2.819172442E-1,3.549404144E-1,9.367314339E0
6.995154760E-1,-1.813607812E-1,4.554968774E-1,9.228450775E0
7.015136540E-1,-3.292027488E-2,2.926911712E-1,9.668983459E0
7.035118830E-1,1.975216344E-2,1.777694821E-1,9.582792282E0
7.055101120E-1,1.011550203E-1,1.250970364E-1,9.654618263E0
7.075083410E-1,9.157821536E-2,2.974795699E-1,8.974664688E0
7.095065700E-1,1.586158574E-1,1.346738487E-1,9.285911560E0
7.115047990E-1,1.873462796E-1,3.597288132E-1,9.190143585E0
7.135030290E-1,2.974795699E-1,-4.189853091E-3,9.994594574E0
7.155012580E-1,3.884592354E-1,-2.334346622E-2,1.032499504E1
7.174994870E-1,3.166331649E-1,2.352303118E-1,9.597157478E0
7.194977160E-1,3.022679687E-1,4.938040972E-1,8.945934296E0
7.214959450E-1,3.932476342E-1,2.879027426E-1,9.913191795E0
7.234941220E-1,5.273229480E-1,1.729810685E-1,1.038724422E1
7.254922990E-1,4.842272997E-1,2.879027426E-1,9.970652580E0
7.274902160E-1,4.363432527E-1,4.890156984E-1,9.089587212E0
7.294878720E-1,3.932476342E-1,4.315548539E-1,9.568427086E0
7.314855290E-1,3.884592354E-1,5.273229480E-1,9.965864182E0
7.334831850E-1,3.980360329E-1,4.746504724E-1,9.759963036E0
7.354808410E-1,3.262099922E-1,3.357867897E-1,9.884461403E0
7.374784970E-1,3.118447661E-1,7.858967185E-1,8.993818283E0
7.394762060E-1,3.357867897E-1,5.368997455E-1,9.817423820E0
7.414739660E-1,3.262099922E-1,2.400187254E-1,1.040160942E1
7.434717790E-1,3.262099922E-1,2.639607489E-1,1.035372543E1
7.454696430E-1,2.639607489E-1,6.613982320E-1,9.597157478E0
7.474675600E-1,2.352303118E-1,7.523778677E-1,9.333795547E0
7.494655290E-1,2.256535143E-1,6.087257862E-1,9.664195061E0
7.514635490E-1,2.017114908E-1,6.374561787E-1,9.668983459E0
7.534616220E-1,1.442506462E-1,7.188590765E-1,9.247604370E0
7.554597470E-1,8.678980917E-2,4.124012291E-1,9.985017776E0
7.574579240E-1,1.538274586E-1,3.357867897E-1,1.048780060E1
7.594561540E-1,1.298854351E-1,4.219780564E-1,9.865307808E0
7.614544350E-1,5.805939063E-2,5.560533404E-1,9.472659111E0
7.634527680E-1,9.636662155E-2,7.332242727E-1,9.372102737E0
7.654511010E-1,1.586158574E-1,4.794389009E-1,9.798270226E0
7.674494350E-1,2.064998895E-1,3.118447661E-1,1.029626465E1
7.694477680E-1,1.490390599E-1,4.842272997E-1,9.707290649E0
7.714461010E-1,1.298854351E-1,2.543839216E-1,9.941922188E0
7.734444350E-1,5.327098817E-2,3.405751884E-1,1.002811337E1
7.754427680E-1,3.890577704E-2,6.901286244E-1,9.501389503E0
7.774411010E-1,5.386953708E-3,5.512649417E-1,9.578003883E0
7.794394350E-1,-7.122749835E-2,4.650736749E-1,9.683348656E0
7.814376120E-1,-1.286883354E-1,-4.189853091E-3,1.032499504E1
7.834357370E-1,-1.861491799E-1,4.171896577E-1,9.779116631E0
7.854338100E-1,-1.813607812E-1,9.630676508E-1,8.893261909E0
7.874318830E-1,-2.579752207E-1,5.033808947E-1,9.257181168E0
7.894299560E-1,-1.813607812E-1,8.678980917E-2,1.022922707E1
7.914280290E-1,-2.053027898E-1,4.267664552E-1,9.659406662E0
7.934261010E-1,-2.292448133E-1,5.033808947E-1,9.319430351E0
7.954241740E-1,-1.765723825E-1,4.650736749E-1,9.276334763E0
7.974222470E-1,-1.669955701E-1,3.501519859E-1,9.692925453E0
7.994203200E-1,-1.143231317E-1,3.549404144E-1,9.783905029E0
8.014183930E-1,-1.813607812E-1,2.926911712E-1,9.798270226E0
8.034164660E-1,-1.813607812E-1,4.267664552E-1,9.707290649E0
8.054145390E-1,-2.100912035E-1,2.879027426E-1,9.817423820E0
8.074126120E-1,-2.148796022E-1,3.022679687E-1,9.769539833E0
8.094106850E-1,-2.436100245E-1,3.788824081E-1,9.434351921E0
8.114087580E-1,-2.005143911E-1,1.298854351E-1,1.012867069E1
8.134068310E-1,-1.238999367E-1,4.028244317E-1,9.692925453E0
8.154049040E-1,-1.238999367E-1,2.831143439E-1,9.716867447E0
8.174029760E-1,-1.478419602E-1,1.155202314E-1,9.846154213E0
8.194011010E-1,-1.574187577E-1,1.538274586E-1,9.812635422E0
8.213992790E-1,-4.249707982E-2,5.799953341E-1,9.424775124E0
8.233975080E-1,-4.728548229E-2,5.656301379E-1,9.218873978E0
8.253957370E-1,-8.559270948E-2,1.538274586E-1,9.783905029E0
8.273939660E-1,2.454056777E-2,1.777694821E-1,1.011430550E1
8.293921950E-1,1.011550203E-1,3.118447661E-1,9.946710587E0
8.313904240E-1,1.586158574E-1,3.166331649E-1,9.707290649E0
8.333886540E-1,1.442506462E-1,2.495955229E-1,9.726444244E0
8.353868830E-1,1.538274586E-1,3.980360329E-1,9.616311073E0
8.373851120E-1,1.442506462E-1,3.836708367E-1,9.587580681E0
8.393833410E-1,2.208651006E-1,2.064998895E-1,9.688137054E0
8.413815700E-1,2.974795699E-1,2.932897024E-2,9.941922188E0
8.433797990E-1,2.639607489E-1,1.490390599E-1,9.783905029E0
8.453780290E-1,2.687491477E-1,1.203086376E-1,9.525331497E0
8.473762580E-1,2.495955229E-1,-5.207388848E-2,9.233239174E0
8.493744870E-1,3.693056107E-1,-1.382651478E-1,9.496601105E0
8.513727160E-1,4.219780564E-1,-1.047463268E-1,9.807847023E0
8.533709450E-1,4.507084787E-1,-1.143231317E-1,9.932345390E0
8.553691740E-1,3.884592354E-1,-1.478419602E-1,9.702502251E0
8.573672990E-1,3.549404144E-1,1.681926697E-1,9.424775124E0
8.593654240E-1,3.357867897E-1,3.357867897E-1,9.697713852E0
8.613632890E-1,3.166331649E-1,-3.292027488E-2,9.965864182E0
8.633611540E-1,2.926911712E-1,2.304419130E-1,1.000895977E1
8.653590180E-1,2.543839216E-1,2.543839216E-1,9.956287384E0
8.673568830E-1,2.783259451E-1,4.028244317E-1,9.712079048E0
8.693547470E-1,2.639607489E-1,6.613982320E-1,9.515754700E0
8.713526120E-1,3.309983909E-1,8.002619147E-1,9.080010414E0
8.733504760E-1,2.735375464E-1,4.219780564E-1,9.846154213E0
8.753483410E-1,3.070563674E-1,3.693056107E-1,1.052131939E1
8.773462060E-1,3.597288132E-1,5.321113467E-1,9.668983459E0
8.793440700E-1,3.118447661E-1,1.969230920E-1,1.017176628E1
8.813419350E-1,2.974795699E-1,3.453635871E-1,1.019570827E1
8.833397990E-1,2.304419130E-1,3.022679687E-1,9.688137054E0
8.853376640E-1,1.681926697E-1,2.352303118E-1,9.635464668E0
8.873355290E-1,2.112883031E-1,4.650736749E-1,9.803058624E0
8.893333930E-1,1.777694821E-1,3.549404144E-1,9.759963036E0
8.913313100E-1,1.250970364E-1,3.357867897E-1,9.726444244E0
8.933292790E-1,1.011550203E-1,3.501519859E-1,9.554061890E0
8.953272990E-1,8.678980917E-2,1.777694821E-1,9.707290649E0
8.973253720E-1,6.763619930E-2,-8.559270948E-2,1.026753426E1
8.993234970E-1,4.369417951E-2,1.107318252E-1,9.879673004E0
9.013216740E-1,5.985504249E-4,1.203086376E-1,9.448717117E0
9.033199040E-1,-1.855506375E-2,-6.643909961E-2,9.463082314E0
9.053181330E-1,-7.122749835E-2,-5.207388848E-2,9.731232643E0
9.073163620E-1,-7.601590455E-2,1.975216344E-2,9.688137054E0
9.093145910E-1,-1.430535465E-1,1.442506462E-1,9.429563522E0
9.113128200E-1,-1.717839688E-1,-3.058592677E-1,1.021007347E1
9.133109450E-1,-1.238999367E-1,-4.249707982E-2,9.329007149E0
9.153089660E-1,-1.765723825E-1,1.975216344E-2,9.616311073E0
9.173069870E-1,-1.622071713E-1,2.304419130E-1,9.147047997E0
9.193050080E-1,-1.574187577E-1,-6.985083222E-1,9.012971878E0
9.213030290E-1,-9.516951442E-2,-9.858125448E-1,1.164180565E1
9.233010490E-1,-4.249707982E-2,2.926911712E-1,9.261969566E0
9.252990700E-1,1.017535757E-2,3.118447661E-1,8.850166321E0
9.272970910E-1,-1.376665942E-2,-3.776853085E-1,9.333795547E0
9.292951120E-1,1.011550203E-1,-3.728969097E-1,9.965864182E0
9.312931330E-1,1.873462796E-1,-1.382651478E-1,1.015261269E1
9.332911540E-1,2.160767019E-1,-5.686229095E-2,9.635464668E0
9.352891740E-1,1.586158574E-1,5.386953708E-3,9.506177902E0
9.372871950E-1,1.777694821E-1,2.932897024E-2,9.367314339E0
9.392852160E-1,1.634042710E-1,-3.250128925E-1,1.013345909E1
9.412832370E-1,1.394622475E-1,-1.813607812E-1,1.023401546E1
9.432812580E-1,9.636662155E-2,1.538274586E-1,9.755174637E0
9.452792790E-1,8.678980917E-2,9.157821536E-2,9.305065155E0
9.472772990E-1,4.369417951E-2,2.454056777E-2,9.750386238E0
9.492753200E-1,8.200141042E-2,-6.165069342E-2,9.855731010E0
9.512733410E-1,7.721300423E-2,-2.813187055E-2,9.884461403E0
9.532713620E-1,1.490390599E-1,7.242459804E-2,9.822212219E0
9.552693830E-1,3.411737457E-2,6.763619930E-2,9.640253067E0
9.572674040E-1,-7.122749835E-2,-2.675520480E-1,9.841365814E0
9.592654240E-1,-5.207388848E-2,-4.728548229E-2,9.827000618E0
9.612634450E-1,-7.122749835E-2,3.118447661E-1,9.060855865E0
9.632615180E-1,-1.143231317E-1,-6.643909961E-2,9.515754700E0
9.652596430E-1,-1.717839688E-1,-1.813607812E-1,9.625887871E0
9.672577680E-1,-1.286883354E-1,-5.686229095E-2,9.692925453E0
9.692558930E-1,-1.334767491E-1,-1.478419602E-1,9.549273491E0
9.712540180E-1,-9.516951442E-2,-4.064157307E-1,9.664195061E0
9.732521430E-1,-1.286883354E-1,-4.207809567E-1,9.903614998E0
9.752502680E-1,-9.995792061E-2,-2.436100245E-1,9.587580681E0
9.772483930E-1,-1.047463268E-1,-3.345896900E-1,9.573215485E0
9.792465180E-1,-1.191115379E-1,-5.452794433E-1,9.798270226E0
9.812446430E-1,-1.095347255E-1,-2.914940715E-1,9.487024307E0
9.832427680E-1,3.890577704E-2,-2.053027898E-1,9.520543098E0
9.852408930E-1,8.200141042E-2,-3.681085110E-1,9.908403397E0
9.872390180E-1,8.200141042E-2,-3.633201122E-1,9.841365814E0
9.892371430E-1,-6.165069342E-2,-3.250128925E-1,9.554061890E0
9.912353200E-1,-7.122749835E-2,-2.675520480E-1,9.654618263E0
9.932335490E-1,5.386953708E-3,-2.244564146E-1,9.870096207E0
9.952318310E-1,1.017535757E-2,-4.207809567E-1,1.009036350E1
9.972301640E-1,1.017535757E-2,-3.537433147E-1,9.836577415E0
9.992284970E-1,9.636662155E-2,-1.622071713E-1,9.678560257E0
1.001226831E0,7.721300423E-2,-3.010708690E-1,9.726444244E0
1.003225164E0,2.064998895E-1,-2.100912035E-1,9.357737541E0
1.005223497E0,1.873462796E-1,-2.771288455E-1,9.601945877E0
1.007221726E0,2.208651006E-1,-5.261258483E-1,9.865307808E0
1.009219851E0,3.453635871E-1,-4.447229803E-1,9.688137054E0
1.011217924E0,3.166331649E-1,-3.441664875E-1,9.707290649E0
1.013215997E0,4.411316514E-1,-5.404910445E-1,9.774328232E0
1.015214070E0,4.985924959E-1,-6.506243348E-1,9.803058624E0
1.017212143E0,4.746504724E-1,-4.973953962E-1,9.707290649E0
1.019210216E0,4.507084787E-1,-4.973953962E-1,9.501389503E0
1.021208289E0,4.698620737E-1,-5.596446395E-1,9.645041466E0
1.023206362E0,3.980360329E-1,-7.607575655E-1,9.913191795E0
1.025204435E0,3.693056107E-1,-6.841431260E-1,9.836577415E0
1.027202508E0,3.453635871E-1,-6.410474777E-1,9.980229378E0
1.029200581E0,3.788824081E-1,-6.362590790E-1,1.010472870E1
1.031198654E0,3.645172119E-1,-4.590881765E-1,9.649829865E0
1.033196726E0,4.315548539E-1,-4.207809567E-1,9.630676270E0
1.035194799E0,3.932476342E-1,-3.154360652E-1,9.597157478E0
1.037192924E0,3.405751884E-1,-3.393780887E-1,9.812635422E0
1.039191049E0,3.357867897E-1,-2.436100245E-1,9.721655846E0
1.041189174E0,3.166331649E-1,-2.148796022E-1,9.716867447E0
1.043187299E0,2.926911712E-1,-3.681085110E-1,9.855731010E0
1.045185424E0,2.448071241E-1,-3.489548862E-1,9.970652580E0
1.047183549E0,1.681926697E-1,-4.255693555E-1,9.783905029E0
1.049181674E0,1.777694821E-1,-3.633201122E-1,9.573215485E0
1.051179799E0,6.763619930E-2,-3.058592677E-1,9.510966301E0
1.053177924E0,5.386953708E-3,-2.867056429E-1,9.352949142E0
1.055176049E0,-4.189853091E-3,-5.261258483E-1,9.822212219E0
1.057174122E0,-2.813187055E-2,-4.926069975E-1,1.009994030E1
1.059172195E0,-1.286883354E-1,-3.058592677E-1,9.592369080E0
1.061170216E0,-1.765723825E-1,-4.351461530E-1,9.716867447E0
1.063168237E0,-1.957259923E-1,-3.202244639E-1,9.726444244E0
1.065166154E0,-1.957259923E-1,-2.723404467E-1,1.006163311E1
1.067164018E0,-1.286883354E-1,-2.244564146E-1,9.889249802E0
1.069161883E0,-1.957259923E-1,4.369417951E-2,9.295488358E0
1.071159747E0,-2.388216257E-1,6.763619930E-2,9.534908295E0
1.073157612E0,-2.675520480E-1,-6.643909961E-2,9.721655846E0
1.075155476E0,-2.483984232E-1,-8.080431074E-2,1.001853657E1
1.077153341E0,-2.100912035E-1,1.155202314E-1,9.946710587E0
1.079151206E0,-2.867056429E-1,1.538274586E-1,9.702502251E0
1.081149070E0,-3.298012912E-1,1.873462796E-1,9.496601105E0
1.083146935E0,-2.962824702E-1,3.411737457E-2,9.783905029E0
1.085144799E0,-2.962824702E-1,5.386953708E-3,9.721655846E0
1.087142664E0,-2.771288455E-1,5.985504249E-4,9.850942612E0
1.089140529E0,-2.627636492E-1,5.805939063E-2,9.563638687E0
1.091138393E0,-3.106476665E-1,-1.526303589E-1,9.812635422E0
1.093136258E0,-3.681085110E-1,-2.914940715E-1,9.889249802E0
1.095134122E0,-4.112041295E-1,-1.191115379E-1,9.530119896E0
1.097131987E0,-4.064157307E-1,-7.601590455E-2,9.558850288E0
1.099129904E0,-3.776853085E-1,-9.516951442E-2,9.697713852E0
1.101127872E0,-4.926069975E-1,-1.430535465E-1,9.525331497E0
1.103125893E0,-4.159925580E-1,-1.669955701E-1,1.005205631E1
1.105123966E0,-4.830302000E-1,-1.855506375E-2,9.707290649E0
1.107122091E0,-4.447229803E-1,-7.122749835E-2,9.563638687E0
1.109120268E0,-3.202244639E-1,-4.249707982E-2,9.721655846E0
1.111118497E0,-3.010708690E-1,-4.189853091E-3,9.582792282E0
1.113116726E0,-2.579752207E-1,1.496376097E-2,9.453505516E0
1.115114956E0,-1.526303589E-1,-1.765723825E-1,9.745597839E0
1.117113185E0,-1.143231317E-1,-2.867056429E-1,1.004726696E1
1.119111414E0,-1.047463268E-1,-2.771288455E-1,9.913191795E0
1.121109643E0,5.386953708E-3,-2.053027898E-1,9.779116631E0
1.123107872E0,3.411737457E-2,-2.813187055E-2,9.295488358E0
1.125105789E0,5.327098817E-2,-4.189853091E-3,9.271546364E0
1.127103706E0,1.155202314E-1,-7.601590455E-2,9.276334763E0
1.129101622E0,1.634042710E-1,-2.340332121E-1,9.678560257E0
1.131099539E0,1.634042710E-1,-4.112041295E-1,9.874884605E0
1.133097456E0,2.687491477E-1,-3.824737072E-1,9.985017776E0
1.135095372E0,3.645172119E-1,-3.585317135E-1,9.917980194E0
1.137093289E0,2.735375464E-1,-2.483984232E-1,9.568427086E0
1.139091206E0,2.974795699E-1,-3.441664875E-1,9.352949142E0
1.141089122E0,4.219780564E-1,-5.021837950E-1,9.812635422E0
1.143087039E0,4.459200799E-1,-3.202244639E-1,1.019091988E1
1.145084956E0,4.459200799E-1,-1.382651478E-1,9.970652580E0
1.147082872E0,4.028244317E-1,-1.717839688E-1,9.635464668E0
1.149080789E0,4.028244317E-1,-3.292027488E-2,9.855731010E0
1.151078706E0,3.501519859E-1,1.203086376E-1,9.487024307E0
1.153076622E0,3.022679687E-1,3.890577704E-2,9.616311073E0
1.155074539E0,2.591723204E-1,7.721300423E-2,1.004726696E1
1.157072456E0,1.921346933E-1,5.273229480E-1,9.458293915E0
1.159070424E0,2.017114908E-1,3.597288132E-1,9.161413193E0
1.161068393E0,3.309983909E-1,1.203086376E-1,9.860519409E0
1.163066362E0,2.256535143E-1,2.543839216E-1,1.001374817E1
1.165064331E0,2.304419130E-1,2.400187254E-1,9.903614998E0
1.167062299E0,2.735375464E-1,1.921346933E-1,9.989806175E0
1.169060268E0,1.873462796E-1,2.543839216E-1,9.740809441E0
1.171058237E0,1.586158574E-1,3.453635871E-1,9.271546364E0
1.173056206E0,1.681926697E-1,1.250970364E-1,9.731232643E0
1.175054174E0,1.394622475E-1,1.107318252E-1,9.917980194E0
1.177052143E0,1.681926697E-1,1.825578809E-1,9.879673004E0
1.179050112E0,8.200141042E-2,2.304419130E-1,9.477447510E0
1.181048081E0,-3.292027488E-2,6.284779310E-2,9.597157478E0
1.183046049E0,2.932897024E-2,1.017535757E-2,9.736021042E0
1.185044018E0,-1.855506375E-2,1.250970364E-1,9.745597839E0
1.187041987E0,-2.334346622E-2,6.763619930E-2,9.956287384E0
1.189039956E0,-8.978256024E-3,1.394622475E-1,1.001374817E1
1.191037924E0,-7.601590455E-2,8.678980917E-2,9.860519409E0
1.193035893E0,-1.382651478E-1,8.200141042E-2,9.659406662E0
1.195033914E0,-2.053027898E-1,2.304419130E-1,9.443928719E0
1.197031987E0,-1.669955701E-1,2.304419130E-1,9.372102737E0
1.199030112E0,-1.191115379E-1,6.284779310E-2,1.013345909E1
1.201028237E0,-1.957259923E-1,2.831143439E-1,9.783905029E0
1.203026414E0,-1.574187577E-1,2.112883031E-1,9.635464668E0
1.205024643E0,-1.047463268E-1,9.636662155E-2,9.932345390E0
1.207022872E0,-2.100912035E-1,2.400187254E-1,9.549273491E0
1.209021101E0,-1.143231317E-1,3.022679687E-1,9.501389503E0
1.211019331E0,-2.334346622E-2,1.250970364E-1,9.783905029E0
1.213017560E0,-2.813187055E-2,1.634042710E-1,1.007120991E1
1.215015789E0,-7.122749835E-2,4.794389009E-1,9.214085579E0
1.217014018E0,-1.855506375E-2,3.693056107E-1,9.046490669E0
1.219012247E0,1.059434265E-1,8.200141042E-2,9.812635422E0
1.221010424E0,1.203086376E-1,1.017535757E-2,1.001853657E1
1.223008497E0,1.203086376E-1,2.932897024E-2,9.889249802E0
1.225006466E0,1.634042710E-1,-6.643909961E-2,9.721655846E0
1.227004435E0,2.400187254E-1,-2.244564146E-1,9.894038200E0
1.229002404E0,2.543839216E-1,-4.189853091E-3,9.530119896E0
1.231000372E0,3.597288132E-1,-2.340332121E-1,9.956287384E0
1.232998341E0,3.453635871E-1,-3.154360652E-1,9.812635422E0
1.234996310E0,3.597288132E-1,-2.531868219E-1,9.544485092E0
1.236994279E0,4.171896577E-1,-1.861491799E-1,9.233239174E0
1.238992247E0,4.746504724E-1,-1.526303589E-1,9.381679535E0
1.240990216E0,4.985924959E-1,-3.106476665E-1,9.803058624E0
1.242988237E0,5.608417392E-1,-3.968389332E-1,1.012388229E1
1.244986310E0,4.985924959E-1,-4.590881765E-1,1.024359226E1
1.246984435E0,4.363432527E-1,-3.633201122E-1,9.903614998E0
1.248982612E0,3.884592354E-1,-5.207388848E-2,9.329007149E0
1.250980841E0,3.980360329E-1,-2.675520480E-1,9.554061890E0
1.252979070E0,3.549404144E-1,-4.112041295E-1,1.013345909E1
1.254977299E0,3.980360329E-1,-2.531868219E-1,1.009515190E1
1.256975529E0,2.974795699E-1,-3.292027488E-2,9.659406662E0
1.258973758E0,1.921346933E-1,-2.483984232E-1,9.716867447E0
1.260971987E0,1.250970364E-1,-1.095347255E-1,9.467870712E0
1.262970164E0,4.369417951E-2,4.848258570E-2,9.453505516E0
1.264968341E0,6.284779310E-2,-1.047463268E-1,9.578003883E0
1.266966518E0,5.327098817E-2,-4.351461530E-1,1.027711105E1
1.268964695E0,5.327098817E-2,4.369417951E-2,9.659406662E0
1.270962664E0,5.386953708E-3,3.890577704E-2,9.625887871E0
1.272960581E0,5.805939063E-2,3.890577704E-2,9.659406662E0
1.274958497E0,5.386953708E-3,2.400187254E-1,9.563638687E0
1.276956414E0,-9.038111567E-2,1.017535757E-2,9.726444244E0
1.278954331E0,-6.643909961E-2,-1.855506375E-2,9.980229378E0
1.280952247E0,-8.559270948E-2,2.256535143E-1,9.578003883E0
1.282950164E0,-1.382651478E-1,2.932897024E-2,9.510966301E0
1.284948081E0,-3.770867735E-2,-1.382651478E-1,9.707290649E0
1.286945997E0,1.017535757E-2,-8.978256024E-3,9.688137054E0
1.288943966E0,1.496376097E-2,-9.995792061E-2,1.004726696E1
1.290941987E0,-8.978256024E-3,-4.249707982E-2,9.870096207E0
1.292940008E0,-9.995792061E-2,-8.978256024E-3,9.611522675E0
1.294938081E0,-4.249707982E-2,1.017535757E-2,9.477447510E0
1.296936206E0,-3.292027488E-2,1.394622475E-1,9.635464668E0
1.298934331E0,-4.249707982E-2,1.442506462E-1,9.645041466E0
1.300932456E0,-5.686229095E-2,1.490390599E-1,9.764751434E0
1.302930581E0,-9.038111567E-2,1.586158574E-1,9.697713852E0
1.304928706E0,-1.238999367E-1,1.490390599E-1,9.673771858E0
1.306926831E0,-1.095347255E-1,8.678980917E-2,9.894038200E0
1.308924956E0,-1.813607812E-1,1.203086376E-1,9.937133789E0
1.310923081E0,-1.909375787E-1,2.352303118E-1,9.874884605E0
1.312921206E0,-2.627636492E-1,1.155202314E-1,9.831789017E0
1.314919331E0,-2.819172442E-1,1.586158574E-1,9.443928719E0
1.316917456E0,-2.053027898E-1,1.490390599E-1,9.601945877E0
1.318915581E0,-1.717839688E-1,7.721300423E-2,9.798270226E0
1.320913706E0,-2.436100245E-1,1.634042710E-1,9.443928719E0
1.322911831E0,-2.436100245E-1,-1.855506375E-2,9.573215485E0
1.324909956E0,-1.238999367E-1,-9.995792061E-2,9.807847023E0
1.326908081E0,-1.622071713E-1,-8.559270948E-2,9.855731010E0
1.328906206E0,-9.516951442E-2,-9.995792061E-2,9.726444244E0
1.330904331E0,-1.334767491E-1,-9.995792061E-2,9.376891136E0
1.332902456E0,5.985504249E-4,-1.286883354E-1,9.434351921E0
1.334900581E0,5.327098817E-2,-2.053027898E-1,9.759963036E0
1.336898706E0,8.678980917E-2,-2.340332121E-1,9.846154213E0
1.338896831E0,1.921346933E-1,-2.531868219E-1,9.736021042E0
1.340894956E0,2.974795699E-1,-4.590881765E-1,1.000417137E1
1.342893081E0,2.256535143E-1,-1.717839688E-1,9.688137054E0
1.344891206E0,2.256535143E-1,2.304419130E-1,8.749609947E0
1.346889331E0,3.166331649E-1,-4.495113790E-1,1.013345909E1
1.348887456E0,3.357867897E-1,-9.618705511E-1,1.112944698E1
1.350885581E0,3.166331649E-1,-7.463923693E-1,1.004247856E1
1.352883706E0,2.783259451E-1,-1.334767491E-1,9.170989990E0
1.354881883E0,2.591723204E-1,3.118447661E-1,8.620323181E0
1.356880060E0,3.118447661E-1,-4.189853091E-3,8.878896713E0
1.358878237E0,3.980360329E-1,-4.734533727E-1,1.035851383E1
1.360876414E0,4.459200799E-1,-3.489548862E-1,1.052131939E1
1.362874591E0,2.926911712E-1,-2.148796022E-1,9.726444244E0
1.364872768E0,3.166331649E-1,-3.537433147E-1,9.731232643E0
1.366870945E0,4.028244317E-1,-6.165069342E-2,9.989806175E0
1.368869122E0,3.645172119E-1,2.932897024E-2,9.510966301E0
1.370867299E0,3.405751884E-1,-6.643909961E-2,9.319430351E0
1.372865476E0,2.352303118E-1,-4.728548229E-2,9.530119896E0
1.374863654E0,2.400187254E-1,-3.345896900E-1,1.008557510E1
1.376861831E0,1.921346933E-1,-2.627636492E-1,1.018613148E1
1.378859904E0,1.873462796E-1,-8.559270948E-2,9.697713852E0
1.380857924E0,1.203086376E-1,-3.298012912E-1,9.707290649E0
1.382855893E0,1.011550203E-1,-2.914940715E-1,9.841365814E0
1.384853862E0,1.203086376E-1,-1.047463268E-1,9.630676270E0
1.386851831E0,1.442506462E-1,-1.765723825E-1,9.688137054E0
1.388849799E0,1.496376097E-2,-1.430535465E-1,9.396044731E0
1.390847768E0,9.636662155E-2,-3.537433147E-1,9.898826599E0
1.392845737E0,1.107318252E-1,-3.106476665E-1,9.884461403E0
1.394843706E0,1.975216344E-2,-2.813187055E-2,9.223662376E0
1.396841674E0,1.155202314E-1,-1.143231317E-1,9.482235909E0
1.398839695E0,1.203086376E-1,-3.585317135E-1,1.001853657E1
1.400837768E0,9.157821536E-2,-4.159925580E-1,1.021007347E1
1.402835893E0,1.442506462E-1,-2.627636492E-1,1.003290176E1
1.404834070E0,9.157821536E-2,-1.957259923E-1,9.745597839E0
1.406832299E0,7.721300423E-2,-2.196680009E-1,9.606734276E0
1.408830581E0,8.678980917E-2,-7.601590455E-2,9.448717117E0
1.410828914E0,1.017535757E-2,-3.770867735E-2,9.223662376E0
1.412827299E0,1.203086376E-1,-1.047463268E-1,9.396044731E0
1.414825685E0,1.298854351E-1,-3.441664875E-1,1.009036350E1
1.416824070E0,1.298854351E-1,-2.962824702E-1,1.014782429E1
1.418822456E0,1.107318252E-1,-1.861491799E-1,9.673771858E0
1.420820685E0,2.591723204E-1,-1.286883354E-1,9.381679535E0
1.422818654E0,1.921346933E-1,-5.207388848E-2,9.443928719E0
1.424816622E0,3.118447661E-1,-2.148796022E-1,9.554061890E0
1.426814591E0,3.214215636E-1,-3.106476665E-1,9.970652580E0
1.428812508E0,2.352303118E-1,-2.914940715E-1,1.018613148E1
1.430810424E0,1.681926697E-1,1.394622475E-1,9.300276756E0
1.432808341E0,2.304419130E-1,9.157821536E-2,9.295488358E0
1.434806154E0,2.783259451E-1,-1.143231317E-1,1.006163311E1
1.436803966E0,2.304419130E-1,-8.559270948E-2,1.019091988E1
1.438801779E0,2.591723204E-1,4.848258570E-2,9.640253067E0
1.440799591E0,3.166331649E-1,9.157821536E-2,9.405621529E0
1.442797404E0,3.357867897E-1,-8.080431074E-2,9.601945877E0
1.444795216E0,3.693056107E-1,1.346738487E-1,9.707290649E0
1.446793029E0,3.693056107E-1,2.400187254E-1,9.707290649E0
1.448790893E0,2.591723204E-1,1.298854351E-1,9.755174637E0
1.450788810E0,1.777694821E-1,4.369417951E-2,9.980229378E0
1.452786779E0,2.304419130E-1,8.678980917E-2,9.961075783E0
1.454784799E0,1.442506462E-1,2.591723204E-1,9.458293915E0
1.456782820E0,1.729810685E-1,2.017114908E-1,9.439140320E0
1.458780893E0,8.200141042E-2,7.721300423E-2,9.712079048E0
1.460779018E0,8.200141042E-2,-1.526303589E-1,1.037287903E1
1.462777143E0,8.678980917E-2,-3.770867735E-2,1.030105305E1
1.464775268E0,7.242459804E-2,2.591723204E-1,9.563638687E0
1.466773393E0,3.890577704E-2,3.836708367E-1,9.324218750E0
1.468771518E0,6.284779310E-2,3.788824081E-1,9.630676270E0
1.470769643E0,5.805939063E-2,1.873462796E-1,9.908403397E0
1.472767768E0,-1.855506375E-2,1.681926697E-1,9.898826599E0
1.474765893E0,-8.559270948E-2,4.267664552E-1,9.319430351E0
1.476764018E0,-6.643909961E-2,4.890156984E-1,8.984241486E0
1.478762143E0,2.932897024E-2,9.636662155E-2,9.927556992E0
1.480760268E0,2.932897024E-2,-1.238999367E-1,1.046385860E1
1.482758393E0,-6.643909961E-2,5.386953708E-3,9.755174637E0
1.484756518E0,-4.189853091E-3,5.386953708E-3,9.458293915E0
1.486754643E0,5.386953708E-3,-4.189853091E-3,9.573215485E0
1.488752716E0,5.985504249E-4,1.975216344E-2,9.707290649E0
1.490750789E0,-2.813187055E-2,-1.382651478E-1,9.884461403E0
1.492748862E0,-3.292027488E-2,-1.238999367E-1,9.798270226E0
1.494746935E0,-8.080431074E-2,1.203086376E-1,9.525331497E0
1.496745008E0,-4.728548229E-2,1.586158574E-1,9.510966301E0
1.498743081E0,-8.559270948E-2,2.454056777E-2,9.721655846E0
1.500741049E0,-7.122749835E-2,-1.376665942E-2,9.917980194E0
1.502739018E0,-6.643909961E-2,1.634042710E-1,9.831789017E0
1.504736935E0,-8.080431074E-2,1.394622475E-1,9.798270226E0
1.506734851E0,-4.728548229E-2,1.011550203E-1,9.745597839E0
1.508732768E0,-6.165069342E-2,1.969230920E-1,9.726444244E0
1.510730685E0,-9.516951442E-2,1.969230920E-1,9.850942612E0
1.512728497E0,-1.047463268E-1,7.242459804E-2,9.702502251E0
1.514726206E0,-3.292027488E-2,-1.047463268E-1,9.836577415E0
1.516723914E0,-1.855506375E-2,-8.559270948E-2,9.865307808E0
1.518721622E0,-5.686229095E-2,1.059434265E-1,9.697713852E0
1.520719331E0,-1.047463268E-1,1.825578809E-1,9.645041466E0
1.522717039E0,-5.686229095E-2,1.873462796E-1,9.755174637E0
1.524714799E0,-9.038111567E-2,1.538274586E-1,9.649829865E0
1.526712612E0,-1.382651478E-1,2.064998895E-1,9.515754700E0
1.528710476E0,-1.095347255E-1,1.538274586E-1,9.793481827E0
1.530708393E0,-1.286883354E-1,7.721300423E-2,9.884461403E0
1.532706362E0,-9.516951442E-2,6.763619930E-2,9.803058624E0
1.534704383E0,-8.559270948E-2,5.386953708E-3,9.894038200E0
1.536702456E0,-4.728548229E-2,1.729810685E-1,9.831789017E0
1.538700581E0,-4.249707982E-2,2.591723204E-1,9.515754700E0
1.540698758E0,-1.669955701E-1,1.777694821E-1,9.568427086E0
1.542696987E0,-1.813607812E-1,1.203086376E-1,9.697713852E0
1.544695268E0,-1.095347255E-1,9.636662155E-2,9.616311073E0
1.546693601E0,-8.559270948E-2,6.763619930E-2,9.841365814E0
1.548691935E0,-1.238999367E-1,-1.376665942E-2,9.908403397E0
1.550690268E0,-1.526303589E-1,-9.516951442E-2,9.927556992E0
1.552688237E0,-1.622071713E-1,1.490390599E-1,9.664195061E0
1.554686206E0,-1.669955701E-1,1.203086376E-1,9.807847023E0
1.556684174E0,-2.579752207E-1,1.681926697E-1,9.668983459E0
1.558682143E0,-3.681085110E-1,1.873462796E-1,9.372102737E0
1.560680112E0,-3.633201122E-1,6.763619930E-2,9.922768593E0
1.562678081E0,-3.537433147E-1,8.678980917E-2,9.884461403E0
1.564676049E0,-3.585317135E-1,-7.122749835E-2,9.688137054E0
1.566674018E0,-4.159925580E-1,-6.643909961E-2,9.932345390E0
1.568671987E0,-4.064157307E-1,1.203086376E-1,9.688137054E0
1.570669956E0,-3.633201122E-1,-7.122749835E-2,9.688137054E0
1.572667924E0,-2.627636492E-1,-9.995792061E-2,9.884461403E0
1.574665893E0,-1.861491799E-1,1.017535757E-2,9.807847023E0
1.576663862E0,-2.388216257E-1,7.242459804E-2,9.434351921E0
1.578661831E0,-2.340332121E-1,6.284779310E-2,9.329007149E0
1.580659799E0,-2.292448133E-1,-5.207388848E-2,9.726444244E0
1.582657768E0,-2.867056429E-1,-1.143231317E-1,9.980229378E0
1.584655737E0,-2.723404467E-1,-9.995792061E-2,9.817423820E0
1.586653758E0,-2.483984232E-1,-5.207388848E-2,9.597157478E0
1.588651831E0,-3.250128925E-1,1.011550203E-1,9.443928719E0
1.590649956E0,-3.010708690E-1,6.763619930E-2,9.582792282E0
1.592648133E0,-2.531868219E-1,2.932897024E-2,9.731232643E0
1.594646362E0,-2.005143911E-1,-8.080431074E-2,9.841365814E0
1.596644643E0,-1.526303589E-1,-2.388216257E-1,1.011430550E1
1.598642976E0,-1.574187577E-1,-2.053027898E-1,9.927556992E0
1.600641362E0,-1.143231317E-1,-1.095347255E-1,9.702502251E0
1.602639747E0,-1.191115379E-1,-1.143231317E-1,9.578003883E0
1.604638133E0,-1.861491799E-1,5.386953708E-3,9.448717117E0
1.606636518E0,-2.292448133E-1,2.454056777E-2,9.439140320E0
1.608634904E0,-1.382651478E-1,-9.516951442E-2,9.630676270E0
1.610633289E0,-1.478419602E-1,-1.430535465E-1,9.980229378E0
1.612631362E0,-1.574187577E-1,-6.643909961E-2,9.970652580E0
1.614629435E0,-9.038111567E-2,-7.601590455E-2,9.716867447E0
1.616627508E0,-1.574187577E-1,1.496376097E-2,9.611522675E0
1.618625581E0,-1.047463268E-1,-9.038111567E-2,1.013345909E1
1.620623654E0,-1.286883354E-1,4.848258570E-2,9.798270226E0
1.622621726E0,-1.238999367E-1,2.454056777E-2,9.400833130E0
1.624619799E0,-8.978256024E-3,5.985504249E-4,9.309853554E0
1.626617872E0,6.763619930E-2,-5.207388848E-2,9.999382973E0
1.628615945E0,9.636662155E-2,-7.601590455E-2,1.022443867E1
1.630614018E0,5.327098817E-2,-9.038111567E-2,9.980229378E0
1.632612091E0,1.496376097E-2,-3.770867735E-2,9.554061890E0
1.634610164E0,2.454056777E-2,1.250970364E-1,9.458293915E0
1.636608237E0,5.327098817E-2,1.203086376E-1,9.664195061E0
1.638606362E0,5.805939063E-2,9.157821536E-2,9.860519409E0
1.640604539E0,-4.728548229E-2,7.721300423E-2,9.788693428E0
1.642602768E0,-8.080431074E-2,1.969230920E-1,9.917980194E0
1.644601049E0,-1.047463268E-1,2.879027426E-1,9.726444244E0
1.646599383E0,-2.244564146E-1,3.357867897E-1,9.539696693E0
1.648597768E0,-1.095347255E-1,3.022679687E-1,9.731232643E0
1.650596154E0,-1.430535465E-1,1.538274586E-1,9.769539833E0
1.652594539E0,-1.238999367E-1,8.200141042E-2,9.769539833E0
1.654592924E0,-7.122749835E-2,1.155202314E-1,9.654618263E0
1.656591310E0,5.327098817E-2,-8.978256024E-3,9.683348656E0
1.658589695E0,2.932897024E-2,-8.559270948E-2,9.616311073E0
1.660588081E0,1.538274586E-1,-1.334767491E-1,1.004726696E1
1.662586362E0,1.873462796E-1,-5.207388848E-2,1.032020664E1
1.664584591E0,1.873462796E-1,-1.376665942E-2,9.961075783E0
1.666582716E0,9.157821536E-2,1.921346933E-1,9.381679535E0
1.668580789E0,1.490390599E-1,3.405751884E-1,9.075222015E0
1.670578862E0,3.214215636E-1,2.256535143E-1,9.242815971E0
1.672576935E0,3.549404144E-1,-4.189853091E-3,9.640253067E0
1.674575008E0,4.411316514E-1,-1.143231317E-1,1.014782429E1
1.676573081E0,5.033808947E-1,-6.643909961E-2,1.026274586E1
1.678571154E0,3.836708367E-1,-4.189853091E-3,9.707290649E0
1.680569226E0,1.298854351E-1,6.284779310E-2,7.964312077E0
1.682567299E0,5.033808947E-1,1.250970364E-1,9.477447510E0
1.684565372E0,5.560533404E-1,-8.080431074E-2,9.922768593E0
1.686563445E0,5.752069354E-1,-1.622071713E-1,9.755174637E0
1.688561518E0,6.805518270E-1,-1.861491799E-1,1.001853657E1
1.690559591E0,7.092822790E-1,-2.244564146E-1,1.030584145E1
1.692557664E0,6.661866307E-1,-1.376665942E-2,1.020049667E1
1.694555737E0,6.470330358E-1,6.284779310E-2,9.836577415E0
1.696553810E0,5.608417392E-1,2.256535143E-1,9.549273491E0
1.698551883E0,6.518214345E-1,2.687491477E-1,9.621099472E0
1.700549956E0,6.135141850E-1,4.411316514E-1,9.592369080E0
1.702548029E0,5.608417392E-1,4.411316514E-1,9.616311073E0
1.704546101E0,5.512649417E-1,3.884592354E-1,9.601945877E0
1.706544174E0,5.847837925E-1,4.315548539E-1,9.673771858E0
1.708542247E0,5.273229480E-1,4.650736749E-1,9.683348656E0
1.710540320E0,5.368997455E-1,4.028244317E-1,9.386467934E0
1.712538393E0,5.560533404E-1,3.405751884E-1,9.654618263E0
1.714536466E0,4.411316514E-1,3.740940094E-1,9.874884605E0
1.716534539E0,4.890156984E-1,4.842272997E-1,1.015740108E1
1.718532612E0,5.368997455E-1,3.932476342E-1,1.005205631E1
1.720530685E0,4.076128304E-1,3.597288132E-1,9.898826599E0
1.722528758E0,4.171896577E-1,3.980360329E-1,9.846154213E0
1.724526831E0,4.076128304E-1,5.656301379E-1,9.530119896E0
1.726524904E0,3.309983909E-1,5.560533404E-1,9.405621529E0
1.728522976E0,4.171896577E-1,5.273229480E-1,9.496601105E0
1.730521049E0,4.267664552E-1,4.602852762E-1,9.692925453E0
1.732519174E0,3.214215636E-1,3.549404144E-1,9.946710587E0
1.734517351E0,2.735375464E-1,5.560533404E-1,1.005205631E1
1.736515581E0,2.352303118E-1,7.140706778E-1,9.841365814E0
1.738513862E0,2.256535143E-1,6.135141850E-1,9.654618263E0
1.740512143E0,1.873462796E-1,6.039373875E-1,9.702502251E0
1.742510424E0,2.017114908E-1,6.374561787E-1,9.558850288E0
1.744508706E0,1.017535757E-2,7.092822790E-1,9.482235909E0
1.746506987E0,1.681926697E-1,6.326677799E-1,9.587580681E0
1.748505216E0,1.873462796E-1,5.512649417E-1,9.759963036E0
1.750503081E0,2.495955229E-1,3.453635871E-1,9.692925453E0
1.752500945E0,1.442506462E-1,2.495955229E-1,9.659406662E0
1.754498810E0,1.729810685E-1,3.788824081E-1,9.654618263E0
1.756496674E0,2.543839216E-1,3.549404144E-1,9.649829865E0
1.758494539E0,2.400187254E-1,2.448071241E-1,9.678560257E0
1.760492456E0,1.969230920E-1,1.586158574E-1,9.659406662E0
1.762490424E0,1.250970364E-1,8.678980917E-2,9.841365814E0
1.764488445E0,1.496376097E-2,2.591723204E-1,9.707290649E0
1.766486518E0,4.369417951E-2,2.879027426E-1,9.611522675E0
1.768484643E0,1.250970364E-1,9.636662155E-2,9.831789017E0
1.770482820E0,1.017535757E-2,2.160767019E-1,9.889249802E0
1.772481049E0,4.848258570E-2,1.969230920E-1,9.525331497E0
1.774479331E0,1.490390599E-1,7.242459804E-2,9.448717117E0
1.776477664E0,2.208651006E-1,9.157821536E-2,9.654618263E0
1.778476049E0,2.543839216E-1,8.678980917E-2,9.913191795E0
1.780474487E0,1.729810685E-1,1.059434265E-1,1.009036350E1
1.782472976E0,2.304419130E-1,1.586158574E-1,9.726444244E0
1.784471466E0,2.208651006E-1,-2.334346622E-2,9.578003883E0
1.786469956E0,1.969230920E-1,-7.601590455E-2,9.884461403E0
1.788468445E0,1.298854351E-1,6.763619930E-2,9.961075783E0
1.790466935E0,1.298854351E-1,1.634042710E-1,9.707290649E0
1.792465424E0,8.678980917E-2,1.681926697E-1,9.534908295E0
1.794463914E0,2.352303118E-1,2.064998895E-1,9.736021042E0
1.796462247E0,3.214215636E-1,1.155202314E-1,9.640253067E0
1.798460529E0,2.591723204E-1,1.298854351E-1,9.645041466E0
1.800458758E0,2.160767019E-1,3.166331649E-1,9.592369080E0
1.802456779E0,2.352303118E-1,1.969230920E-1,9.668983459E0
1.804454799E0,2.448071241E-1,1.975216344E-2,9.841365814E0
1.806452820E0,1.298854351E-1,4.369417951E-2,9.736021042E0
1.808450841E0,1.586158574E-1,7.721300423E-2,9.831789017E0
1.810448810E0,2.112883031E-1,1.490390599E-1,9.635464668E0
1.812446674E0,2.304419130E-1,1.346738487E-1,9.568427086E0
1.814444435E0,2.208651006E-1,1.634042710E-1,9.625887871E0
1.816442195E0,1.011550203E-1,1.442506462E-1,9.592369080E0
1.818439956E0,9.157821536E-2,1.250970364E-1,9.726444244E0
1.820437716E0,1.538274586E-1,1.538274586E-1,9.908403397E0
1.822435476E0,6.763619930E-2,2.352303118E-1,9.812635422E0
1.824433237E0,8.200141042E-2,2.974795699E-1,9.783905029E0
1.826430997E0,5.985504249E-4,5.177460909E-1,9.606734276E0
1.828428810E0,5.386953708E-3,3.740940094E-1,9.582792282E0
1.830426674E0,9.157821536E-2,3.022679687E-1,9.855731010E0
1.832424591E0,1.203086376E-1,3.262099922E-1,9.975440979E0
1.834422560E0,5.386953708E-3,3.405751884E-1,9.836577415E0
1.836420581E0,-4.189853091E-3,3.980360329E-1,9.731232643E0
1.838418654E0,5.985504249E-4,4.602852762E-1,9.659406662E0
1.840416779E0,-1.855506375E-2,2.831143439E-1,9.448717117E0
1.842414956E0,5.327098817E-2,2.687491477E-1,9.740809441E0
1.844413185E0,-5.686229095E-2,3.788824081E-1,9.850942612E0
1.846411466E0,-9.516951442E-2,3.405751884E-1,9.822212219E0
1.848409799E0,-1.574187577E-1,3.932476342E-1,9.726444244E0
1.850408185E0,-1.717839688E-1,3.070563674E-1,9.544485092E0
1.852406622E0,-4.728548229E-2,2.017114908E-1,9.817423820E0
1.854405060E0,-4.728548229E-2,2.879027426E-1,9.879673004E0
1.856403497E0,9.636662155E-2,3.357867897E-1,9.640253067E0
1.858401779E0,1.250970364E-1,2.400187254E-1,9.453505516E0
1.860399851E0,9.157821536E-2,7.242459804E-2,9.439140320E0
1.862397924E0,1.059434265E-1,1.496376097E-2,9.798270226E0
1.864395841E0,9.636662155E-2,2.932897024E-2,9.688137054E0
1.866393758E0,1.107318252E-1,-2.334346622E-2,9.870096207E0
1.868391674E0,2.304419130E-1,-1.376665942E-2,9.903614998E0
1.870389591E0,2.017114908E-1,6.763619930E-2,9.506177902E0
1.872387508E0,2.160767019E-1,3.890577704E-2,9.487024307E0
1.874385424E0,2.926911712E-1,9.157821536E-2,9.716867447E0
1.876383341E0,2.831143439E-1,2.831143439E-1,9.616311073E0
1.878381258E0,2.256535143E-1,2.304419130E-1,9.482235909E0
1.880379174E0,2.639607489E-1,2.064998895E-1,9.578003883E0
1.882377091E0,3.022679687E-1,1.059434265E-1,1.002332497E1
1.884375008E0,2.687491477E-1,1.346738487E-1,1.025795746E1
1.886372924E0,3.501519859E-1,2.448071241E-1,1.008078671E1
1.888370841E0,2.017114908E-1,5.033808947E-1,9.582792282E0
1.890368758E0,1.681926697E-1,4.507084787E-1,9.391256332E0
1.892366674E0,3.022679687E-1,5.368997455E-1,9.558850288E0
1.894364591E0,3.166331649E-1,4.938040972E-1,9.659406662E0
1.896362508E0,1.155202314E-1,3.549404144E-1,9.874884605E0
1.898360476E0,2.448071241E-1,2.352303118E-1,1.021486187E1
1.900358497E0,3.405751884E-1,2.831143439E-1,1.013345909E1
1.902356570E0,3.118447661E-1,2.304419130E-1,9.889249802E0
1.904354695E0,2.735375464E-1,3.022679687E-1,9.491812706E0
1.906352872E0,3.549404144E-1,2.783259451E-1,9.453505516E0
1.908351101E0,3.070563674E-1,2.783259451E-1,9.376891136E0
1.910349383E0,2.735375464E-1,1.107318252E-1,9.587580681E0
1.912347716E0,2.687491477E-1,2.256535143E-1,9.367314339E0
1.914346049E0,2.495955229E-1,1.729810685E-1,9.865307808E0
1.916344383E0,6.284779310E-2,3.890577704E-2,1.024359226E1
1.918342716E0,1.586158574E-1,2.256535143E-1,9.865307808E0
1.920341049E0,1.250970364E-1,3.645172119E-1,9.582792282E0
1.922339383E0,2.932897024E-2,2.448071241E-1,9.664195061E0
1.924337716E0,-1.855506375E-2,2.831143439E-1,9.625887871E0
1.926335945E0,1.017535757E-2,4.315548539E-1,9.668983459E0
1.928334174E0,6.284779310E-2,1.634042710E-1,9.932345390E0
1.930332404E0,7.721300423E-2,2.017114908E-1,9.683348656E0
1.932330633E0,1.634042710E-1,2.352303118E-1,9.640253067E0
1.934328862E0,3.411737457E-2,1.681926697E-1,9.601945877E0
1.936327091E0,6.284779310E-2,1.729810685E-1,9.649829865E0
1.938325320E0,1.250970364E-1,7.721300423E-2,9.621099472E0
1.940323549E0,1.969230920E-1,-8.978256024E-3,9.769539833E0
1.942321779E0,1.873462796E-1,-2.334346622E-2,9.855731010E0
1.944320008E0,2.495955229E-1,-1.478419602E-1,9.898826599E0
1.946318237E0,2.543839216E-1,1.777694821E-1,9.601945877E0
1.948316466E0,2.591723204E-1,1.969230920E-1,9.616311073E0
1.950314695E0,1.825578809E-1,3.070563674E-1,9.769539833E0
1.952312976E0,1.681926697E-1,2.783259451E-1,9.831789017E0
1.954311310E0,1.777694821E-1,4.171896577E-1,9.884461403E0
1.956309643E0,1.298854351E-1,5.321113467E-1,9.515754700E0
1.958307976E0,2.454056777E-2,4.746504724E-1,9.625887871E0
1.960306310E0,3.411737457E-2,4.459200799E-1,9.625887871E0
1.962304643E0,1.017535757E-2,3.309983909E-1,9.874884605E0
1.964302976E0,1.975216344E-2,3.214215636E-1,9.927556992E0
1.966301310E0,-2.813187055E-2,2.352303118E-1,9.889249802E0
1.968299643E0,-4.189853091E-3,1.777694821E-1,9.841365814E0
1.970297976E0,-5.686229095E-2,4.124012291E-1,9.510966301E0
1.972296310E0,-1.574187577E-1,3.597288132E-1,9.424775124E0
1.974294591E0,-2.196680009E-1,1.873462796E-1,9.520543098E0
1.976292872E0,-2.483984232E-1,2.543839216E-1,9.817423820E0
1.978291154E0,-2.244564146E-1,1.681926697E-1,1.003290176E1
1.980289435E0,-3.058592677E-1,1.155202314E-1,9.774328232E0
1.982287716E0,-2.819172442E-1,2.639607489E-1,9.372102737E0
1.984285997E0,-3.489548862E-1,1.442506462E-1,9.688137054E0
1.986284279E0,-3.489548862E-1,6.763619930E-2,9.889249802E0
1.988282560E0,-3.154360652E-1,1.011550203E-1,9.645041466E0
1.990280841E0,-3.106476665E-1,3.890577704E-2,9.601945877E0
1.992279122E0,-2.867056429E-1,-8.978256024E-3,9.831789017E0
1.994277456E0,-2.148796022E-1,-2.334346622E-2,9.549273491E0
1.996275841E0,-2.244564146E-1,-1.047463268E-1,9.951498985E0
1.998274279E0,-2.100912035E-1,-8.978256024E-3,9.692925453E0
2.000272768E0,-2.292448133E-1,2.064998895E-1,9.381679535E0
2.002271310E0,-2.723404467E-1,-6.165069342E-2,9.712079048E0
2.004269904E0,-2.627636492E-1,1.975216344E-2,9.922768593E0
2.006268497E0,-4.249707982E-2,2.974795699E-1,9.726444244E0
2.008267091E0,-9.995792061E-2,1.586158574E-1,9.913191795E0
2.010265685E0,-1.334767491E-1,2.926911712E-1,9.721655846E0
2.012264279E0,-1.047463268E-1,4.028244317E-1,9.625887871E0
2.014262872E0,-1.717839688E-1,3.453635871E-1,9.664195061E0
2.016261466E0,-1.382651478E-1,3.214215636E-1,9.659406662E0
2.018259643E0,-1.574187577E-1,3.262099922E-1,9.850942612E0
2.020257820E0,-2.962824702E-1,3.549404144E-1,9.668983459E0
2.022255997E0,-3.250128925E-1,4.124012291E-1,9.558850288E0
2.024254174E0,-2.531868219E-1,4.985924959E-1,9.558850288E0
2.026252351E0,-3.393780887E-1,4.411316514E-1,9.654618263E0
2.028250529E0,-3.776853085E-1,3.501519859E-1,1.001853657E1
2.030248706E0,-3.681085110E-1,2.831143439E-1,1.005684471E1
2.032246883E0,-3.585317135E-1,3.932476342E-1,1.005684471E1
2.034245060E0,-2.819172442E-1,3.357867897E-1,9.817423820E0
2.036243237E0,-2.771288455E-1,3.166331649E-1,9.841365814E0
2.038241414E0,-3.920505345E-1,4.554968774E-1,9.712079048E0
2.040239591E0,-5.213374496E-1,4.650736749E-1,9.352949142E0
2.042237768E0,-4.351461530E-1,3.980360329E-1,9.333795547E0
2.044235945E0,-4.399345517E-1,4.890156984E-1,9.487024307E0
2.046234174E0,-4.447229803E-1,2.304419130E-1,9.941922188E0
2.048232456E0,-4.447229803E-1,1.729810685E-1,9.941922188E0
2.050230789E0,-4.495113790E-1,2.112883031E-1,9.721655846E0
2.052229174E0,-5.165489912E-1,2.495955229E-1,9.343372345E0
2.054227612E0,-4.399345517E-1,2.687491477E-1,9.487024307E0
2.056226101E0,-3.776853085E-1,1.155202314E-1,9.731232643E0
2.058224643E0,-3.728969097E-1,5.805939063E-2,9.769539833E0
2.060223185E0,-3.489548862E-1,7.721300423E-2,9.860519409E0
2.062221726E0,-3.058592677E-1,1.975216344E-2,9.827000618E0
2.064220268E0,-3.106476665E-1,-2.813187055E-2,9.759963036E0
2.066218810E0,-2.962824702E-1,7.242459804E-2,9.640253067E0
2.068217195E0,-2.579752207E-1,1.394622475E-1,9.525331497E0
2.070215164E0,-2.819172442E-1,9.157821536E-2,9.731232643E0
2.072213133E0,-2.675520480E-1,4.848258570E-2,9.740809441E0
2.074211101E0,-2.244564146E-1,1.496376097E-2,1.005684471E1
2.076209070E0,-3.154360652E-1,1.729810685E-1,9.831789017E0
2.078207039E0,-3.010708690E-1,2.783259451E-1,9.812635422E0
2.080205008E0,-2.723404467E-1,2.926911712E-1,9.793481827E0
2.082203029E0,-2.723404467E-1,2.591723204E-1,9.750386238E0
2.084201101E0,-2.867056429E-1,2.256535143E-1,1.001374817E1
2.086199226E0,-4.159925580E-1,2.879027426E-1,9.874884605E0
2.088197404E0,-4.590881765E-1,4.698620737E-1,9.429563522E0
2.090195633E0,-3.920505345E-1,3.309983909E-1,9.218873978E0
2.092193914E0,-3.010708690E-1,1.490390599E-1,9.405621529E0
2.094192247E0,-2.244564146E-1,1.490390599E-1,9.793481827E0
2.096190633E0,-1.717839688E-1,1.059434265E-1,9.961075783E0
2.098189070E0,-6.643909961E-2,6.763619930E-2,9.855731010E0
2.100187508E0,-8.080431074E-2,9.636662155E-2,9.827000618E0
2.102185945E0,-7.601590455E-2,1.298854351E-1,9.683348656E0
2.104184383E0,-6.643909961E-2,2.735375464E-1,9.649829865E0
2.106182820E0,-9.516951442E-2,3.836708367E-1,9.544485092E0
2.108181258E0,-1.047463268E-1,4.363432527E-1,9.745597839E0
2.110179695E0,-7.601590455E-2,5.129576921E-1,9.798270226E0
2.112178133E0,-4.249707982E-2,7.906851172E-1,9.625887871E0
2.114176362E0,-1.191115379E-1,8.050503135E-1,9.381679535E0
2.116174487E0,-8.559270948E-2,6.805518270E-1,9.788693428E0
2.118172612E0,-4.728548229E-2,7.332242727E-1,1.018134308E1
2.120170737E0,-1.191115379E-1,8.146271110E-1,9.922768593E0
2.122168862E0,-3.770867735E-2,8.242039084E-1,9.692925453E0
2.124166987E0,-3.292027488E-2,9.726444483E-1,9.616311073E0
2.126165112E0,-9.516951442E-2,9.917980433E-1,9.621099472E0
2.128163237E0,-1.143231317E-1,8.864531517E-1,9.640253067E0
2.130161310E0,-1.430535465E-1,7.715315223E-1,9.716867447E0
2.132159383E0,-9.995792061E-2,7.092822790E-1,9.721655846E0
2.134157456E0,-7.601590455E-2,7.188590765E-1,9.827000618E0
2.136155529E0,-8.080431074E-2,8.289923668E-1,1.000895977E1
2.138153601E0,-1.669955701E-1,7.475894690E-1,9.803058624E0
2.140151674E0,-1.526303589E-1,7.332242727E-1,9.530119896E0
2.142149747E0,-1.526303589E-1,7.571662664E-1,9.386467934E0
2.144147820E0,-1.143231317E-1,6.949170232E-1,9.477447510E0
2.146145893E0,-7.122749835E-2,5.225345492E-1,9.879673004E0
2.148143966E0,-7.122749835E-2,5.847837925E-1,1.024359226E1
2.150142039E0,-9.038111567E-2,5.847837925E-1,1.002811337E1
2.152140112E0,-8.080431074E-2,7.332242727E-1,9.659406662E0
2.154138185E0,-1.622071713E-1,8.720879555E-1,9.448717117E0
2.156136258E0,-1.957259923E-1,7.906851172E-1,9.472659111E0
2.158134331E0,-2.100912035E-1,7.523778677E-1,9.922768593E0
2.160132404E0,-1.143231317E-1,7.092822790E-1,9.836577415E0
2.162130476E0,5.386953708E-3,8.098387122E-1,9.850942612E0
2.164128549E0,-2.334346622E-2,8.242039084E-1,9.635464668E0
2.166126622E0,-1.047463268E-1,8.337807655E-1,9.338583946E0
2.168124695E0,2.932897024E-2,7.858967185E-1,9.702502251E0
2.170122768E0,8.678980917E-2,7.763199210E-1,9.759963036E0
2.172120841E0,2.112883031E-1,6.039373875E-1,1.005205631E1
2.174118914E0,1.298854351E-1,6.326677799E-1,9.850942612E0
2.176116987E0,2.735375464E-1,5.799953341E-1,9.870096207E0
2.178115060E0,2.112883031E-1,7.619546652E-1,1.003769016E1
2.180113133E0,1.586158574E-1,8.625111580E-1,9.496601105E0
2.182111206E0,9.636662155E-2,8.002619147E-1,9.386467934E0
2.184109279E0,1.729810685E-1,7.380126715E-1,9.601945877E0
2.186107351E0,1.490390599E-1,7.667431235E-1,1.000417137E1
2.188105424E0,1.825578809E-1,8.529343605E-1,9.965864182E0
2.190103497E0,1.011550203E-1,8.098387122E-1,9.405621529E0
2.192101570E0,2.256535143E-1,6.661866307E-1,9.664195061E0
2.194099643E0,2.974795699E-1,5.512649417E-1,1.002811337E1
2.196097612E0,2.687491477E-1,5.321113467E-1,9.889249802E0
2.198095581E0,2.256535143E-1,6.374561787E-1,9.534908295E0
2.200093549E0,2.926911712E-1,7.571662664E-1,9.352949142E0
2.202091518E0,4.267664552E-1,4.938040972E-1,9.597157478E0
2.204089487E0,5.177460909E-1,3.309983909E-1,1.003769016E1
2.206087456E0,5.033808947E-1,4.076128304E-1,9.989806175E0
2.208085424E0,5.991489887E-1,4.124012291E-1,9.458293915E0
2.210083445E0,5.943605900E-1,5.608417392E-1,9.443928719E0
2.212081518E0,7.523778677E-1,4.411316514E-1,9.846154213E0
2.214079643E0,6.230909824E-1,2.783259451E-1,9.716867447E0
2.216077820E0,5.608417392E-1,3.740940094E-1,9.831789017E0
2.218075997E0,5.512649417E-1,3.549404144E-1,9.793481827E0
2.220074174E0,5.033808947E-1,1.729810685E-1,9.812635422E0
2.222072351E0,4.554968774E-1,2.448071241E-1,9.769539833E0
2.224070529E0,4.171896577E-1,3.022679687E-1,9.807847023E0
2.226068706E0,4.028244317E-1,1.298854351E-1,9.774328232E0
2.228066883E0,3.405751884E-1,1.538274586E-1,9.817423820E0
2.230065008E0,3.549404144E-1,-4.249707982E-2,9.898826599E0
2.232063029E0,3.309983909E-1,-2.053027898E-1,9.769539833E0
2.234061049E0,3.501519859E-1,-2.005143911E-1,9.975440979E0
2.236059070E0,2.879027426E-1,-3.058592677E-1,9.783905029E0
2.238057091E0,2.879027426E-1,-4.303577542E-1,1.012867069E1
2.240055112E0,1.586158574E-1,-2.292448133E-1,1.007120991E1
2.242053133E0,-1.286883354E-1,4.369417951E-2,9.482235909E0
2.244051154E0,-1.574187577E-1,1.490390599E-1,9.127894402E0
2.246049174E0,-8.080431074E-2,-1.376665942E-2,9.597157478E0
2.248047195E0,-8.080431074E-2,-4.728548229E-2,9.654618263E0
2.250045216E0,-1.047463268E-1,1.017535757E-2,9.362525940E0
2.252043237E0,3.890577704E-2,-4.189853091E-3,9.501389503E0
2.254041258E0,-1.286883354E-1,5.985504249E-4,9.635464668E0
2.256039331E0,-1.957259923E-1,-4.189853091E-3,9.692925453E0
2.258037456E0,-9.038111567E-2,-2.436100245E-1,9.855731010E0
2.260035633E0,-5.207388848E-2,-3.106476665E-1,9.965864182E0
2.262033862E0,-9.995792061E-2,-1.382651478E-1,9.932345390E0
2.264032143E0,-1.622071713E-1,-1.430535465E-1,9.649829865E0
2.266030476E0,-1.047463268E-1,-2.005143911E-1,9.419986725E0
2.268028862E0,7.242459804E-2,-3.681085110E-1,9.764751434E0
2.270027247E0,1.729810685E-1,-5.787982345E-1,9.798270226E0
2.272025633E0,5.805939063E-2,-4.255693555E-1,9.783905029E0
2.274024018E0,2.017114908E-1,-4.112041295E-1,9.903614998E0
2.276022195E0,8.200141042E-2,-2.723404467E-1,9.779116631E0
2.278020320E0,2.687491477E-1,-2.483984232E-1,9.769539833E0
2.280018445E0,3.501519859E-1,-3.106476665E-1,9.894038200E0
2.282016570E0,2.495955229E-1,-1.430535465E-1,9.506177902E0
2.284014643E0,3.453635871E-1,-6.165069342E-2,9.530119896E0
2.286012612E0,2.448071241E-1,3.411737457E-2,9.539696693E0
2.288010581E0,2.639607489E-1,2.454056777E-2,9.439140320E0
2.290008549E0,1.490390599E-1,6.284779310E-2,9.453505516E0
2.292006518E0,2.112883031E-1,-9.995792061E-2,9.755174637E0
2.294004487E0,1.873462796E-1,-4.255693555E-1,9.783905029E0
2.296002456E0,2.400187254E-1,-5.740098357E-1,9.956287384E0
2.298000476E0,1.203086376E-1,-5.500678420E-1,1.003769016E1
2.299998497E0,-2.334346622E-2,-3.633201122E-1,9.692925453E0
2.301996570E0,7.242459804E-2,-4.495113790E-1,9.726444244E0
2.303994695E0,-3.292027488E-2,-5.069721937E-1,9.601945877E0
2.305992872E0,6.284779310E-2,-5.404910445E-1,9.530119896E0
2.307991049E0,1.729810685E-1,-5.740098357E-1,9.779116631E0
2.309989226E0,1.634042710E-1,-4.064157307E-1,9.827000618E0
2.311987404E0,1.538274586E-1,-2.148796022E-1,9.731232643E0
2.313985581E0,2.017114908E-1,-9.516951442E-2,9.592369080E0
2.315983758E0,2.591723204E-1,-4.728548229E-2,9.467870712E0
2.317981935E0,2.974795699E-1,-2.340332121E-1,9.683348656E0
2.319980112E0,3.693056107E-1,-4.303577542E-1,1.008557510E1
2.321978289E0,2.304419130E-1,-4.542997777E-1,1.015740108E1
2.323976466E0,5.805939063E-2,-3.250128925E-1,9.831789017E0
2.325974643E0,2.160767019E-1,-3.058592677E-1,9.917980194E0
2.327972716E0,1.975216344E-2,-1.765723825E-1,9.525331497E0
2.329970737E0,-3.292027488E-2,-1.813607812E-1,9.108740807E0
2.331968706E0,-3.292027488E-2,-2.053027898E-1,9.309853554E0
2.333966674E0,-2.334346622E-2,-3.393780887E-1,9.621099472E0
2.335964643E0,6.284779310E-2,-5.021837950E-1,9.779116631E0
2.337962612E0,5.327098817E-2,-5.500678420E-1,9.803058624E0
2.339960581E0,3.411737457E-2,-5.213374496E-1,9.999382973E0
2.341958549E0,-6.643909961E-2,-5.644330382E-1,1.010951710E1
2.343956518E0,-1.191115379E-1,-4.159925580E-1,9.894038200E0
2.345954487E0,-1.382651478E-1,-3.058592677E-1,9.606734276E0
2.347952456E0,-2.292448133E-1,-3.585317135E-1,9.396044731E0
2.349950424E0,-1.334767491E-1,-4.303577542E-1,9.352949142E0
2.351948393E0,-2.053027898E-1,-4.734533727E-1,9.515754700E0
2.353946414E0,-2.148796022E-1,-4.016273320E-1,9.592369080E0
2.355944487E0,-1.717839688E-1,-6.362590790E-1,9.716867447E0
2.357942612E0,-1.957259923E-1,-7.320271730E-1,1.022443867E1
2.359940789E0,-2.100912035E-1,-7.655459642E-1,1.009036350E1
2.361938966E0,-1.669955701E-1,-6.937199235E-1,9.764751434E0
2.363937143E0,-2.867056429E-1,-4.542997777E-1,9.592369080E0
2.365935320E0,-1.813607812E-1,-4.590881765E-1,9.214085579E0
2.367933497E0,6.284779310E-2,-6.362590790E-1,9.376891136E0
2.369931674E0,2.495955229E-1,-7.846996188E-1,9.793481827E0
2.371929851E0,3.309983909E-1,-7.942764163E-1,1.015261269E1
2.373927768E0,4.267664552E-1,-7.607575655E-1,1.004726696E1
2.375925633E0,4.267664552E-1,-7.416039705E-1,9.774328232E0
2.377923497E0,4.411316514E-1,-5.692214370E-1,9.482235909E0
2.379921362E0,3.453635871E-1,-2.771288455E-1,9.381679535E0
2.381919226E0,3.788824081E-1,-3.872621357E-1,9.343372345E0
2.383917091E0,3.788824081E-1,-5.213374496E-1,9.376891136E0
2.385914956E0,4.171896577E-1,-7.032967210E-1,9.563638687E0
2.387912820E0,4.507084787E-1,-7.511807680E-1,9.860519409E0
2.389910737E0,4.842272997E-1,-6.985083222E-1,9.903614998E0
2.391908706E0,5.129576921E-1,-5.883750916E-1,9.841365814E0
2.393906726E0,4.507084787E-1,-3.298012912E-1,9.965864182E0
2.395904799E0,3.980360329E-1,-1.047463268E-1,9.894038200E0
2.397902924E0,4.794389009E-1,-1.095347255E-1,9.601945877E0
2.399901101E0,3.645172119E-1,-3.770867735E-2,9.352949142E0
2.401899279E0,3.118447661E-1,5.805939063E-2,9.525331497E0
2.403897456E0,2.974795699E-1,-4.728548229E-2,9.630676270E0
2.405895633E0,3.070563674E-1,-1.047463268E-1,1.002332497E1
2.407893810E0,2.112883031E-1,5.985504249E-4,1.039203262E1
2.409891987E0,3.022679687E-1,-1.376665942E-2,1.019570827E1
2.411890164E0,2.304419130E-1,1.107318252E-1,9.946710587E0
2.413888029E0,1.538274586E-1,1.155202314E-1,9.601945877E0
2.415885893E0,1.490390599E-1,8.678980917E-2,9.242815971E0
2.417883758E0,8.678980917E-2,5.386953708E-3,9.204508781E0
2.419881622E0,8.200141042E-2,1.011550203E-1,9.214085579E0
2.421879487E0,1.586158574E-1,-1.047463268E-1,9.554061890E0
2.423877351E0,1.538274586E-1,-1.765723825E-1,9.788693428E0
2.425875216E0,1.203086376E-1,-1.191115379E-1,9.870096207E0
2.427873081E0,1.825578809E-1,-2.100912035E-1,9.783905029E0
2.429870945E0,2.400187254E-1,-2.196680009E-1,9.812635422E0
2.431868810E0,2.831143439E-1,-8.080431074E-2,9.836577415E0
2.433866674E0,2.543839216E-1,-2.813187055E-2,9.635464668E0
2.435864591E0,2.926911712E-1,1.975216344E-2,9.472659111E0
2.437862560E0,2.879027426E-1,6.284779310E-2,9.463082314E0
2.439860581E0,3.357867897E-1,8.678980917E-2,9.592369080E0
2.441858601E0,4.698620737E-1,1.059434265E-1,9.779116631E0
2.443856622E0,3.980360329E-1,6.763619930E-2,9.850942612E0
2.445854643E0,4.124012291E-1,-5.686229095E-2,9.731232643E0
2.447852664E0,3.980360329E-1,-9.995792061E-2,9.783905029E0
2.449850685E0,4.938040972E-1,2.454056777E-2,9.903614998E0
2.451848706E0,4.698620737E-1,1.346738487E-1,9.898826599E0
2.453846726E0,5.033808947E-1,2.543839216E-1,9.803058624E0
2.455844747E0,4.698620737E-1,2.974795699E-1,9.736021042E0
2.457842768E0,4.890156984E-1,3.980360329E-1,9.850942612E0
2.459840841E0,4.602852762E-1,6.039373875E-1,9.726444244E0
2.461838914E0,4.650736749E-1,4.842272997E-1,9.520543098E0
2.463836987E0,5.273229480E-1,4.363432527E-1,9.697713852E0
2.465835060E0,5.416881442E-1,3.740940094E-1,9.922768593E0
2.467833133E0,5.608417392E-1,3.357867897E-1,9.865307808E0
2.469831206E0,4.411316514E-1,3.693056107E-1,9.750386238E0
2.471829279E0,4.267664552E-1,2.304419130E-1,9.836577415E0
2.473827351E0,4.028244317E-1,2.783259451E-1,9.913191795E0
2.475825476E0,2.639607489E-1,2.831143439E-1,9.764751434E0
2.477823601E0,2.448071241E-1,3.070563674E-1,9.434351921E0
2.479821726E0,2.926911712E-1,4.076128304E-1,9.568427086E0
2.481819851E0,1.634042710E-1,5.416881442E-1,9.463082314E0
2.483817976E0,7.242459804E-2,4.938040972E-1,9.367314339E0
2.485816101E0,1.394622475E-1,3.453635871E-1,9.510966301E0
2.487814226E0,1.059434265E-1,1.059434265E-1,9.664195061E0
2.489812351E0,1.017535757E-2,-3.292027488E-2,9.913191795E0
2.491810476E0,6.763619930E-2,5.386953708E-3,1.016218948E1
2.493808601E0,5.805939063E-2,-1.717839688E-1,9.908403397E0
2.495806726E0,7.721300423E-2,-1.622071713E-1,9.865307808E0
2.497804851E0,7.242459804E-2,5.327098817E-2,9.846154213E0
2.499802768E0,6.284779310E-2,1.634042710E-1,9.798270226E0
2.501800529E0,1.975216344E-2,3.022679687E-1,9.549273491E0
2.503798133E0,2.932897024E-2,2.352303118E-1,9.434351921E0
2.505795737E0,5.327098817E-2,1.634042710E-1,9.740809441E0
2.507793341E0,1.011550203E-1,3.214215636E-1,1.019091988E1
2.509790945E0,-3.770867735E-2,3.166331649E-1,9.846154213E0
2.511788549E0,-1.191115379E-1,2.495955229E-1,9.544485092E0
2.513786206E0,-1.286883354E-1,3.166331649E-1,9.731232643E0
2.515783914E0,-2.244564146E-1,3.597288132E-1,9.736021042E0
2.517781674E0,-2.148796022E-1,3.022679687E-1,9.649829865E0
2.519779487E0,-2.196680009E-1,2.687491477E-1,9.645041466E0
2.521777404E0,-2.005143911E-1,2.879027426E-1,9.649829865E0
2.523775424E0,-2.005143911E-1,3.214215636E-1,9.625887871E0
2.525773549E0,-1.622071713E-1,1.921346933E-1,9.558850288E0
2.527771779E0,-2.053027898E-1,1.825578809E-1,9.707290649E0
2.529770060E0,-2.723404467E-1,1.825578809E-1,9.759963036E0
2.531768393E0,-2.148796022E-1,2.831143439E-1,9.779116631E0
2.533766779E0,-1.430535465E-1,2.639607489E-1,9.736021042E0
2.535765216E0,-5.207388848E-2,2.926911712E-1,9.803058624E0
2.537763654E0,-8.978256024E-3,3.214215636E-1,1.004247856E1
2.539762091E0,1.975216344E-2,3.693056107E-1,9.874884605E0
2.541760529E0,-8.978256024E-3,2.448071241E-1,9.621099472E0
2.543758966E0,3.890577704E-2,3.118447661E-1,9.726444244E0
2.545757039E0,-8.978256024E-3,3.836708367E-1,9.783905029E0
2.547755112E0,5.327098817E-2,3.645172119E-1,9.654618263E0
2.549753133E0,8.200141042E-2,2.448071241E-1,9.482235909E0
2.551751154E0,4.848258570E-2,3.166331649E-1,9.621099472E0
2.553748914E0,5.386953708E-3,2.208651006E-1,9.563638687E0
2.555746674E0,1.017535757E-2,7.721300423E-2,9.520543098E0
2.557744435E0,1.203086376E-1,2.454056777E-2,9.865307808E0
2.559742195E0,1.298854351E-1,-3.292027488E-2,9.827000618E0
2.561739956E0,1.538274586E-1,-3.292027488E-2,9.779116631E0
2.563737716E0,1.442506462E-1,8.200141042E-2,9.783905029E0
2.565735476E0,1.777694821E-1,1.059434265E-1,9.865307808E0
2.567733237E0,1.203086376E-1,8.200141042E-2,9.544485092E0
2.569730997E0,9.636662155E-2,-2.813187055E-2,9.520543098E0
2.571728810E0,1.107318252E-1,1.017535757E-2,9.841365814E0
2.573726674E0,1.011550203E-1,-6.643909961E-2,1.006642151E1
2.575724591E0,7.721300423E-2,-2.813187055E-2,9.850942612E0
2.577722560E0,2.932897024E-2,-4.249707982E-2,9.721655846E0
2.579720581E0,-7.122749835E-2,3.890577704E-2,9.534908295E0
2.581718654E0,-6.165069342E-2,7.721300423E-2,9.549273491E0
2.583716726E0,-4.249707982E-2,6.284779310E-2,9.568427086E0
2.585714799E0,-8.978256024E-3,7.242459804E-2,9.716867447E0
2.587712872E0,3.890577704E-2,5.805939063E-2,9.712079048E0
2.589710945E0,4.369417951E-2,-9.038111567E-2,9.472659111E0
2.591709018E0,5.985504249E-4,-1.765723825E-1,9.510966301E0
2.593707091E0,2.932897024E-2,-1.622071713E-1,9.870096207E0
2.595705164E0,1.059434265E-1,-1.622071713E-1,1.011909389E1
2.597703237E0,1.346738487E-1,-2.334346622E-2,1.001853657E1
2.599701310E0,2.448071241E-1,1.921346933E-1,1.000895977E1
2.601699383E0,1.011550203E-1,2.974795699E-1,9.712079048E0
2.603697456E0,8.678980917E-2,4.842272997E-1,9.458293915E0
2.605695529E0,5.805939063E-2,6.135141850E-1,9.467870712E0
2.607693601E0,-3.770867735E-2,6.422445774E-1,9.587580681E0
2.609691674E0,-1.286883354E-1,5.560533404E-1,9.736021042E0
2.611689747E0,-1.622071713E-1,5.799953341E-1,9.951498985E0
2.613687820E0,-1.382651478E-1,6.901286244E-1,1.014782429E1
2.615685893E0,-1.909375787E-1,6.613982320E-1,9.980229378E0
2.617683966E0,-2.723404467E-1,7.140706778E-1,9.453505516E0
2.619682039E0,-3.154360652E-1,6.518214345E-1,9.726444244E0
2.621680112E0,-3.872621357E-1,6.901286244E-1,1.007120991E1
2.623678185E0,-3.824737072E-1,8.385691643E-1,1.003769016E1
2.625676258E0,-5.548562407E-1,8.864531517E-1,9.257181168E0
2.627674331E0,-5.931634903E-1,6.470330358E-1,9.123106003E0
2.629672404E0,-5.452794433E-1,6.805518270E-1,9.688137054E0
2.631670476E0,-5.500678420E-1,6.135141850E-1,9.841365814E0
2.633668549E0,-5.165489912E-1,3.118447661E-1,9.554061890E0
2.635666622E0,-4.542997777E-1,2.304419130E-1,9.922768593E0
2.637664695E0,-4.255693555E-1,2.208651006E-1,9.946710587E0
2.639662768E0,-3.872621357E-1,2.879027426E-1,9.649829865E0
2.641660841E0,-3.345896900E-1,2.974795699E-1,9.707290649E0
2.643658914E0,-2.483984232E-1,3.118447661E-1,9.558850288E0
2.645656987E0,-1.813607812E-1,3.740940094E-1,9.578003883E0
2.647655060E0,-7.122749835E-2,4.124012291E-1,9.850942612E0
2.649653133E0,4.369417951E-2,4.267664552E-1,9.831789017E0
2.651651206E0,5.327098817E-2,4.985924959E-1,9.539696693E0
2.653649279E0,9.636662155E-2,4.411316514E-1,9.850942612E0
2.655647351E0,9.636662155E-2,4.698620737E-1,9.635464668E0
2.657645424E0,1.346738487E-1,4.794389009E-1,9.601945877E0
2.659643497E0,1.059434265E-1,5.608417392E-1,1.003290176E1
2.661641570E0,8.678980917E-2,6.566098332E-1,9.817423820E0
2.663639643E0,1.975216344E-2,6.230909824E-1,9.961075783E0
2.665637716E0,5.985504249E-4,8.194155097E-1,9.803058624E0
2.667635789E0,-1.047463268E-1,8.433575630E-1,9.721655846E0
2.669633862E0,-1.909375787E-1,7.667431235E-1,9.625887871E0
2.671631935E0,-2.196680009E-1,5.464765429E-1,9.707290649E0
2.673630008E0,-2.579752207E-1,5.321113467E-1,9.822212219E0
2.675628081E0,-2.436100245E-1,6.518214345E-1,1.009994030E1
2.677626154E0,-3.058592677E-1,5.847837925E-1,9.903614998E0
2.679624226E0,-2.867056429E-1,6.661866307E-1,9.463082314E0
2.681622299E0,-3.058592677E-1,4.746504724E-1,9.209297180E0
2.683620372E0,-1.909375787E-1,4.076128304E-1,9.238027573E0
2.685618445E0,-1.143231317E-1,3.357867897E-1,9.510966301E0
2.687616518E0,-3.292027488E-2,2.591723204E-1,1.003290176E1
2.689614591E0,4.369417951E-2,2.831143439E-1,1.013345909E1
2.691612664E0,1.681926697E-1,4.746504724E-1,9.884461403E0
2.693610737E0,1.203086376E-1,4.507084787E-1,9.405621529E0
2.695608810E0,2.017114908E-1,4.650736749E-1,9.338583946E0
2.697606883E0,2.256535143E-1,3.884592354E-1,9.692925453E0
2.699604956E0,1.586158574E-1,4.602852762E-1,9.812635422E0
2.701603081E0,1.250970364E-1,4.507084787E-1,9.913191795E0
2.703601258E0,1.825578809E-1,4.794389009E-1,9.510966301E0
2.705599487E0,1.346738487E-1,5.608417392E-1,9.769539833E0
2.707597768E0,8.200141042E-2,6.087257862E-1,9.913191795E0
2.709596101E0,1.346738487E-1,6.087257862E-1,9.707290649E0
2.711594487E0,8.678980917E-2,5.464765429E-1,1.003290176E1
2.713592924E0,5.985504249E-4,5.799953341E-1,9.774328232E0
2.715591362E0,-1.855506375E-2,6.518214345E-1,9.736021042E0
2.717589799E0,-1.430535465E-1,6.278793812E-1,9.645041466E0
2.719588237E0,-1.909375787E-1,5.177460909E-1,9.477447510E0
2.721586674E0,-1.574187577E-1,5.321113467E-1,9.697713852E0
2.723585112E0,-1.957259923E-1,5.368997455E-1,9.927556992E0
2.725583549E0,-1.765723825E-1,4.554968774E-1,9.985017776E0
2.727581779E0,-1.574187577E-1,4.267664552E-1,9.985017776E0
2.729579956E0,-2.579752207E-1,6.518214345E-1,9.846154213E0
2.731578133E0,-2.579752207E-1,6.853402257E-1,9.649829865E0
2.733576310E0,-1.765723825E-1,5.943605900E-1,9.716867447E0
2.735574487E0,-2.148796022E-1,8.672995567E-1,9.578003883E0
2.737572664E0,-2.388216257E-1,7.858967185E-1,9.324218750E0
2.739570841E0,-3.058592677E-1,6.661866307E-1,9.587580681E0
2.741569018E0,-3.441664875E-1,5.129576921E-1,9.932345390E0
2.743567195E0,-3.633201122E-1,4.842272997E-1,1.007120991E1
2.745565372E0,-4.590881765E-1,5.608417392E-1,9.745597839E0
2.747563549E0,-4.399345517E-1,5.656301379E-1,9.654618263E0
2.749561726E0,-4.878185987E-1,5.991489887E-1,9.697713852E0
2.751559904E0,-4.973953962E-1,5.895721912E-1,9.525331497E0
2.753558081E0,-3.776853085E-1,4.315548539E-1,9.309853554E0
2.755556258E0,-3.537433147E-1,2.974795699E-1,9.635464668E0
2.757554435E0,-3.010708690E-1,2.208651006E-1,9.932345390E0
2.759552612E0,-2.771288455E-1,2.735375464E-1,1.013345909E1
2.761550789E0,-3.728969097E-1,3.740940094E-1,9.755174637E0
2.763548966E0,-3.345896900E-1,2.400187254E-1,9.740809441E0
2.765547143E0,-2.819172442E-1,1.873462796E-1,9.721655846E0
2.767545320E0,-3.010708690E-1,6.284779310E-2,9.803058624E0
2.769543497E0,-3.106476665E-1,2.448071241E-1,9.558850288E0
2.771541674E0,-3.585317135E-1,2.831143439E-1,9.443928719E0
2.773539851E0,-2.867056429E-1,2.352303118E-1,9.554061890E0
2.775538029E0,-3.393780887E-1,2.064998895E-1,9.515754700E0
2.777536206E0,-2.819172442E-1,1.107318252E-1,9.850942612E0
2.779534383E0,-3.393780887E-1,-4.189853091E-3,9.846154213E0
2.781532560E0,-3.250128925E-1,-3.770867735E-2,1.014303589E1
2.783530737E0,-3.010708690E-1,9.636662155E-2,9.903614998E0
2.785528914E0,-3.010708690E-1,3.890577704E-2,9.673771858E0
2.787527091E0,-2.771288455E-1,4.369417951E-2,9.506177902E0
2.789525268E0,-1.957259923E-1,2.304419130E-1,9.702502251E0
2.791523445E0,-1.095347255E-1,2.352303118E-1,9.525331497E0
2.793521622E0,-9.038111567E-2,2.064998895E-1,9.520543098E0
2.795519799E0,-3.770867735E-2,-2.334346622E-2,9.688137054E0
2.797517976E0,-1.376665942E-2,2.932897024E-2,1.012867069E1
2.799516154E0,5.386953708E-3,2.017114908E-1,9.846154213E0
2.801514331E0,-1.376665942E-2,2.974795699E-1,9.683348656E0
2.803512351E0,1.017535757E-2,3.501519859E-1,9.592369080E0
2.805510216E0,-8.978256024E-3,3.788824081E-1,9.865307808E0
2.807508081E0,8.200141042E-2,3.788824081E-1,9.807847023E0
2.809505945E0,2.454056777E-2,4.171896577E-1,9.601945877E0
2.811503810E0,1.017535757E-2,4.219780564E-1,9.563638687E0
2.813501674E0,5.985504249E-4,3.597288132E-1,9.472659111E0
2.815499539E0,1.011550203E-1,4.028244317E-1,9.798270226E0
2.817497456E0,5.327098817E-2,4.124012291E-1,9.841365814E0
2.819495424E0,1.298854351E-1,2.064998895E-1,9.999382973E0
2.821493445E0,1.107318252E-1,2.352303118E-1,1.001853657E1
2.823491518E0,1.634042710E-1,4.171896577E-1,9.558850288E0
2.825489643E0,9.157821536E-2,4.171896577E-1,8.864531517E0
2.827487820E0,2.160767019E-1,3.693056107E-1,9.348160744E0
2.829486049E0,2.495955229E-1,2.879027426E-1,9.798270226E0
2.831484331E0,3.740940094E-1,2.400187254E-1,1.028189945E1
2.833482612E0,3.262099922E-1,3.932476342E-1,1.008078671E1
2.835480893E0,2.831143439E-1,4.698620737E-1,9.850942612E0
2.837479174E0,2.208651006E-1,3.932476342E-1,9.678560257E0
2.839477456E0,2.208651006E-1,4.411316514E-1,9.597157478E0
2.841475737E0,2.112883031E-1,3.788824081E-1,9.640253067E0
2.843474018E0,2.112883031E-1,1.777694821E-1,9.961075783E0
2.845472299E0,2.064998895E-1,2.831143439E-1,9.673771858E0
2.847470581E0,1.825578809E-1,2.304419130E-1,9.812635422E0
2.849468654E0,1.490390599E-1,2.064998895E-1,9.855731010E0
2.851466726E0,7.242459804E-2,3.070563674E-1,9.515754700E0
2.853464799E0,9.157821536E-2,1.586158574E-1,9.793481827E0
2.855462872E0,6.284779310E-2,2.879027426E-1,1.005684471E1
2.857460945E0,8.200141042E-2,3.884592354E-1,9.654618263E0
2.859459018E0,1.107318252E-1,3.262099922E-1,9.683348656E0
2.861457091E0,1.729810685E-1,2.687491477E-1,9.601945877E0
2.863455164E0,1.681926697E-1,2.448071241E-1,9.654618263E0
2.865453185E0,1.777694821E-1,2.831143439E-1,9.898826599E0
2.867451101E0,2.208651006E-1,4.985924959E-1,9.870096207E0
2.869449018E0,2.400187254E-1,4.459200799E-1,9.803058624E0
2.871446935E0,2.208651006E-1,3.405751884E-1,9.932345390E0
2.873444851E0,2.208651006E-1,6.135141850E-1,9.506177902E0
2.875442768E0,2.591723204E-1,5.464765429E-1,9.534908295E0
2.877440685E0,2.495955229E-1,6.805518270E-1,9.664195061E0
2.879438654E0,1.011550203E-1,6.853402257E-1,9.443928719E0
2.881436674E0,1.107318252E-1,3.118447661E-1,9.510966301E0
2.883434747E0,2.304419130E-1,1.107318252E-1,9.894038200E0
2.885432872E0,2.017114908E-1,1.442506462E-1,1.005684471E1
2.887431049E0,2.400187254E-1,9.157821536E-2,9.788693428E0
2.889429279E0,2.974795699E-1,8.200141042E-2,9.539696693E0
2.891427508E0,3.405751884E-1,-3.292027488E-2,9.506177902E0
2.893425737E0,3.884592354E-1,-1.191115379E-1,9.788693428E0
2.895423966E0,4.411316514E-1,-2.005143911E-1,1.041597462E1
2.897422195E0,3.980360329E-1,1.634042710E-1,1.002332497E1
2.899420424E0,3.932476342E-1,1.442506462E-1,9.051279068E0
2.901418654E0,3.309983909E-1,7.721300423E-2,9.151836395E0
2.903416883E0,4.076128304E-1,2.687491477E-1,9.664195061E0
2.905415112E0,4.171896577E-1,5.560533404E-1,9.745597839E0
2.907413341E0,4.842272997E-1,5.416881442E-1,9.793481827E0
2.909411570E0,4.746504724E-1,4.746504724E-1,9.817423820E0
2.911409539E0,4.650736749E-1,6.087257862E-1,1.004247856E1
2.913407508E0,5.129576921E-1,6.326677799E-1,9.759963036E0
2.915405476E0,5.177460909E-1,5.464765429E-1,9.946710587E0
2.917403341E0,4.507084787E-1,7.188590765E-1,9.807847023E0
2.919401206E0,3.645172119E-1,7.571662664E-1,9.678560257E0
2.921399070E0,2.735375464E-1,6.613982320E-1,9.477447510E0
2.923396935E0,3.166331649E-1,4.650736749E-1,9.860519409E0
2.925394799E0,2.687491477E-1,4.363432527E-1,9.788693428E0
2.927392664E0,2.495955229E-1,3.166331649E-1,1.004726696E1
2.929390529E0,1.634042710E-1,3.262099922E-1,9.745597839E0
2.931388393E0,9.157821536E-2,3.309983909E-1,9.477447510E0
2.933386258E0,3.890577704E-2,2.543839216E-1,9.415198326E0
2.935384174E0,-3.770867735E-2,1.490390599E-1,9.635464668E0
2.937382143E0,-3.770867735E-2,-1.855506375E-2,9.975440979E0
2.939380164E0,-1.095347255E-1,5.805939063E-2,1.003769016E1
2.941378237E0,-2.100912035E-1,9.636662155E-2,9.664195061E0
2.943376362E0,-2.675520480E-1,-2.813187055E-2,9.467870712E0
2.945374487E0,-2.340332121E-1,-8.978256024E-3,9.740809441E0
2.947372612E0,-1.813607812E-1,-3.770867735E-2,9.783905029E0
2.949370737E0,-1.909375787E-1,-7.601590455E-2,9.702502251E0
2.951368862E0,-9.995792061E-2,5.805939063E-2,9.951498985E0
2.953366987E0,-2.148796022E-1,-3.292027488E-2,9.645041466E0
2.955365112E0,-1.957259923E-1,6.763619930E-2,9.372102737E0
2.957363237E0,-1.765723825E-1,1.298854351E-1,9.755174637E0
2.959361362E0,-1.622071713E-1,1.975216344E-2,9.635464668E0
2.961359487E0,-4.249707982E-2,-3.292027488E-2,9.563638687E0
2.963357612E0,-4.728548229E-2,8.678980917E-2,9.606734276E0
2.965355737E0,2.454056777E-2,1.490390599E-1,9.597157478E0
2.967353862E0,3.411737457E-2,1.250970364E-1,9.937133789E0
2.969351987E0,1.059434265E-1,-6.643909961E-2,1.007599831E1
2.971350112E0,4.848258570E-2,3.890577704E-2,9.549273491E0
2.973348237E0,1.975216344E-2,1.203086376E-1,9.386467934E0
2.975346362E0,7.721300423E-2,1.921346933E-1,9.290699959E0
2.977344487E0,1.586158574E-1,-1.855506375E-2,9.812635422E0
2.979342612E0,1.825578809E-1,-9.038111567E-2,1.019570827E1
2.981340737E0,1.729810685E-1,9.636662155E-2,1.006642151E1
2.983338862E0,1.011550203E-1,1.873462796E-1,9.606734276E0
2.985336987E0,-4.189853091E-3,1.538274586E-1,9.257181168E0
2.987335112E0,5.386953708E-3,1.059434265E-1,9.396044731E0
2.989333237E0,-4.189853091E-3,3.411737457E-2,9.635464668E0
2.991331362E0,-1.376665942E-2,-1.669955701E-1,9.798270226E0
2.993329487E0,7.721300423E-2,-1.478419602E-1,1.029626465E1
2.995327612E0,8.200141042E-2,-4.249707982E-2,1.005684471E1
2.997325737E0,9.157821536E-2,-1.622071713E-1,9.678560257E0
2.999323862E0,2.932897024E-2,-2.053027898E-1,9.779116631E0
3.001321987E0,1.681926697E-1,-1.191115379E-1,9.817423820E0
3.003320112E0,1.729810685E-1,6.284779310E-2,9.692925453E0
3.005318237E0,1.777694821E-1,9.636662155E-2,9.439140320E0
3.007316362E0,1.729810685E-1,1.586158574E-1,9.515754700E0
3.009314487E0,1.394622475E-1,8.200141042E-2,9.831789017E0
3.011312664E0,1.538274586E-1,5.386953708E-3,1.002811337E1
3.013310893E0,1.346738487E-1,1.586158574E-1,9.736021042E0
3.015309174E0,1.346738487E-1,1.203086376E-1,9.640253067E0
3.017307508E0,1.442506462E-1,1.975216344E-2,9.549273491E0
3.019305893E0,8.678980917E-2,2.454056777E-2,9.597157478E0
3.021304331E0,1.107318252E-1,3.890577704E-2,9.582792282E0
3.023302820E0,1.155202314E-1,-1.143231317E-1,9.846154213E0
3.025301362E0,6.284779310E-2,-8.080431074E-2,9.865307808E0
3.027299956E0,8.678980917E-2,1.011550203E-1,9.372102737E0
3.029298601E0,-4.728548229E-2,8.678980917E-2,9.376891136E0
3.031297247E0,-1.855506375E-2,-2.053027898E-1,1.001374817E1
3.033295893E0,9.636662155E-2,-9.516951442E-2,1.024359226E1
3.035294539E0,1.203086376E-1,2.112883031E-1,1.008078671E1
3.037293185E0,-5.207388848E-2,2.448071241E-1,9.621099472E0
3.039291831E0,-1.376665942E-2,2.783259451E-1,9.534908295E0
3.041290320E0,7.721300423E-2,2.831143439E-1,9.759963036E0
3.043288549E0,6.763619930E-2,9.636662155E-2,9.745597839E0
3.045286779E0,5.805939063E-2,1.681926697E-1,9.970652580E0
3.047285008E0,2.454056777E-2,2.735375464E-1,9.697713852E0
3.049283237E0,9.636662155E-2,1.298854351E-1,9.673771858E0
3.051281466E0,4.848258570E-2,2.735375464E-1,9.597157478E0
3.053279695E0,2.932897024E-2,2.304419130E-1,9.731232643E0
3.055277924E0,3.890577704E-2,2.926911712E-1,9.683348656E0
3.057276154E0,1.017535757E-2,1.586158574E-1,9.946710587E0
3.059274383E0,1.496376097E-2,1.825578809E-1,9.769539833E0
3.061272612E0,-1.382651478E-1,1.059434265E-1,9.266757965E0
3.063270841E0,-2.334346622E-2,-7.122749835E-2,9.601945877E0
3.065269070E0,3.411737457E-2,-1.478419602E-1,1.019091988E1
3.067267299E0,2.454056777E-2,-6.643909961E-2,9.937133789E0
3.069265581E0,5.805939063E-2,-9.038111567E-2,9.429563522E0
3.071263914E0,1.250970364E-1,-2.813187055E-2,9.467870712E0
3.073262299E0,2.112883031E-1,1.496376097E-2,9.779116631E0
3.075260737E0,2.543839216E-1,-9.995792061E-2,9.726444244E0
3.077259226E0,1.729810685E-1,5.985504249E-4,9.587580681E0
3.079257716E0,1.059434265E-1,9.157821536E-2,9.367314339E0
3.081256206E0,2.448071241E-1,-9.038111567E-2,9.582792282E0
3.083254695E0,2.543839216E-1,-7.122749835E-2,9.740809441E0
3.085253185E0,5.327098817E-2,-8.080431074E-2,9.563638687E0
3.087251674E0,2.352303118E-1,-4.249707982E-2,9.745597839E0
3.089250164E0,2.160767019E-1,1.298854351E-1,1.004247856E1
3.091248601E0,6.763619930E-2,1.298854351E-1,9.788693428E0
3.093246831E0,1.298854351E-1,1.969230920E-1,9.692925453E0
3.095244956E0,1.346738487E-1,1.394622475E-1,9.649829865E0
3.097243081E0,2.448071241E-1,-1.191115379E-1,9.549273491E0
3.099241206E0,2.017114908E-1,-2.914940715E-1,9.951498985E0
3.101239331E0,2.783259451E-1,1.496376097E-2,1.045907021E1
3.103237456E0,2.112883031E-1,2.591723204E-1,9.491812706E0
3.105235633E0,2.591723204E-1,-9.995792061E-2,8.850166321E0
3.107233862E0,2.591723204E-1,-1.669955701E-1,9.166201591E0
3.109232143E0,2.879027426E-1,3.890577704E-2,1.007120991E1
3.111230476E0,3.262099922E-1,3.214215636E-1,1.014303589E1
3.113228862E0,2.448071241E-1,1.729810685E-1,9.961075783E0
3.115227299E0,2.974795699E-1,3.597288132E-1,1.030105305E1
3.117225789E0,1.777694821E-1,5.033808947E-1,1.010951710E1
3.119224279E0,3.411737457E-2,3.501519859E-1,9.458293915E0
3.121222768E0,-5.686229095E-2,1.634042710E-1,9.506177902E0
3.123221258E0,-2.292448133E-1,2.112883031E-1,9.568427086E0
3.125219747E0,-2.388216257E-1,1.394622475E-1,9.510966301E0
3.127218237E0,-2.627636492E-1,-4.728548229E-2,9.372102737E0
3.129216570E0,-2.196680009E-1,-7.601590455E-2,9.740809441E0
3.131214591E0,-1.334767491E-1,3.890577704E-2,1.015261269E1
3.133212612E0,-7.122749835E-2,4.848258570E-2,9.860519409E0
3.135210633E0,1.496376097E-2,-6.165069342E-2,9.568427086E0
3.137208654E0,4.369417951E-2,6.763619930E-2,9.611522675E0
3.139206674E0,-3.770867735E-2,7.721300423E-2,9.712079048E0
3.141204695E0,-2.334346622E-2,-1.376665942E-2,9.779116631E0
3.143202716E0,-9.995792061E-2,5.327098817E-2,9.482235909E0
3.145200737E0,-1.376665942E-2,5.985504249E-4,9.616311073E0
3.147198758E0,-8.559270948E-2,-2.813187055E-2,9.903614998E0
3.149196831E0,-1.622071713E-1,-5.686229095E-2,9.841365814E0
3.151194956E0,-1.430535465E-1,-1.382651478E-1,9.803058624E0
3.153193081E0,-1.382651478E-1,-1.574187577E-1,1.008078671E1
3.155191206E0,-2.723404467E-1,2.454056777E-2,9.903614998E0
3.157189383E0,-1.334767491E-1,4.848258570E-2,9.515754700E0
3.159187612E0,-1.669955701E-1,9.636662155E-2,9.683348656E0
3.161185841E0,-1.957259923E-1,9.636662155E-2,9.439140320E0
3.163184070E0,-2.196680009E-1,-3.770867735E-2,9.357737541E0
3.165182299E0,-2.340332121E-1,3.890577704E-2,9.951498985E0
3.167180529E0,-1.909375787E-1,1.250970364E-1,1.022443867E1
3.169178758E0,-1.574187577E-1,-1.286883354E-1,9.927556992E0
3.171176987E0,-1.813607812E-1,4.369417951E-2,9.803058624E0
3.173175216E0,-1.813607812E-1,1.346738487E-1,9.688137054E0
3.175173445E0,-1.669955701E-1,1.969230920E-1,9.544485092E0
3.177171674E0,-1.286883354E-1,2.352303118E-1,9.534908295E0
3.179169904E0,-2.196680009E-1,5.805939063E-2,9.582792282E0
3.181168133E0,-2.388216257E-1,5.985504249E-4,9.850942612E0
3.183166362E0,-2.675520480E-1,-1.191115379E-1,9.889249802E0
3.185164591E0,-1.765723825E-1,-8.978256024E-3,9.836577415E0
3.187162820E0,-1.669955701E-1,-5.686229095E-2,9.750386238E0
3.189161049E0,-2.196680009E-1,5.386953708E-3,9.482235909E0
3.191159279E0,-2.196680009E-1,5.985504249E-4,9.396044731E0
3.193157508E0,-1.047463268E-1,-5.686229095E-2,9.707290649E0
3.195155737E0,-6.643909961E-2,-1.855506375E-2,9.750386238E0
3.197153706E0,-7.122749835E-2,-1.430535465E-1,9.764751434E0
3.199151674E0,-2.334346622E-2,-2.627636492E-1,9.917980194E0
3.201149643E0,-1.286883354E-1,-9.995792061E-2,9.779116631E0
3.203147612E0,-6.165069342E-2,-9.516951442E-2,9.668983459E0
3.205145581E0,-7.601590455E-2,-1.855506375E-2,9.419986725E0
3.207143549E0,-1.478419602E-1,-9.995792061E-2,9.463082314E0
3.209141518E0,2.932897024E-2,-6.165069342E-2,9.606734276E0
3.211139487E0,5.805939063E-2,-2.813187055E-2,9.889249802E0
3.213137456E0,6.763619930E-2,3.411737457E-2,9.779116631E0
3.215135476E0,4.848258570E-2,9.636662155E-2,9.965864182E0
3.217133549E0,3.890577704E-2,1.729810685E-1,9.774328232E0
3.219131674E0,6.763619930E-2,8.678980917E-2,9.726444244E0
3.221129851E0,8.200141042E-2,2.064998895E-1,9.879673004E0
3.223128081E0,2.932897024E-2,-8.978256024E-3,9.410409927E0
3.225126362E0,1.538274586E-1,-9.038111567E-2,9.812635422E0
3.227124695E0,1.107318252E-1,-1.765723825E-1,9.941922188E0
3.229123081E0,1.490390599E-1,-2.292448133E-1,9.922768593E0
3.231121518E0,2.064998895E-1,-1.909375787E-1,9.606734276E0
3.233119956E0,1.107318252E-1,-4.728548229E-2,9.491812706E0
3.235118393E0,1.490390599E-1,2.932897024E-2,9.635464668E0
3.237116831E0,2.639607489E-1,-1.286883354E-1,9.879673004E0
3.239115268E0,2.304419130E-1,-1.478419602E-1,9.424775124E0
3.241113706E0,2.112883031E-1,-5.207388848E-2,9.592369080E0
3.243112143E0,2.208651006E-1,-1.143231317E-1,9.415198326E0
3.245110268E0,2.017114908E-1,-1.526303589E-1,1.000895977E1
3.247108185E0,1.729810685E-1,-1.376665942E-2,1.012867069E1
3.249106101E0,8.200141042E-2,-5.686229095E-2,9.865307808E0
3.251104018E0,1.155202314E-1,2.017114908E-1,9.865307808E0
3.253101935E0,2.932897024E-2,3.597288132E-1,9.381679535E0
3.255099851E0,-8.559270948E-2,9.636662155E-2,9.017760277E0
3.257097768E0,-8.080431074E-2,5.327098817E-2,9.726444244E0
3.259095685E0,-4.189853091E-3,1.017535757E-2,1.015261269E1
3.261093654E0,3.890577704E-2,-1.478419602E-1,1.006163311E1
3.263091674E0,9.636662155E-2,-1.095347255E-1,9.951498985E0
3.265089747E0,1.107318252E-1,-5.686229095E-2,9.985017776E0
3.267087872E0,1.394622475E-1,-4.728548229E-2,9.884461403E0
3.269086049E0,1.729810685E-1,2.256535143E-1,9.391256332E0
3.271084279E0,1.490390599E-1,3.411737457E-2,9.185355186E0
3.273082560E0,2.879027426E-1,9.636662155E-2,9.985017776E0
3.275080893E0,1.203086376E-1,2.735375464E-1,1.000417137E1
3.277079279E0,7.721300423E-2,2.591723204E-1,9.400833130E0
3.279077716E0,2.017114908E-1,1.250970364E-1,9.601945877E0
3.281076154E0,1.538274586E-1,2.256535143E-1,9.908403397E0
3.283074591E0,6.763619930E-2,2.454056777E-2,9.874884605E0
3.285073029E0,1.250970364E-1,1.346738487E-1,9.803058624E0
3.287071466E0,9.636662155E-2,8.200141042E-2,9.563638687E0
3.289069904E0,1.490390599E-1,2.591723204E-1,9.434351921E0
3.291068237E0,2.304419130E-1,1.017535757E-2,9.616311073E0
3.293066414E0,3.453635871E-1,-7.559691668E-1,1.016218948E1
3.295064487E0,3.980360329E-1,-3.345896900E-1,1.029626465E1
3.297062560E0,3.357867897E-1,4.411316514E-1,9.731232643E0
3.299060633E0,2.735375464E-1,4.267664552E-1,8.850166321E0
3.301058706E0,2.831143439E-1,2.735375464E-1,8.505401611E0
3.303056779E0,3.693056107E-1,2.304419130E-1,9.257181168E0
3.305054851E0,4.171896577E-1,3.070563674E-1,1.047343540E1
3.307052924E0,4.028244317E-1,2.495955229E-1,1.040160942E1
3.309050997E0,2.926911712E-1,1.777694821E-1,9.860519409E0
3.311049070E0,3.549404144E-1,2.495955229E-1,9.539696693E0
3.313047143E0,3.501519859E-1,1.059434265E-1,9.889249802E0
3.315045216E0,3.405751884E-1,2.112883031E-1,9.759963036E0
3.317043289E0,3.788824081E-1,3.166331649E-1,9.578003883E0
3.319041362E0,3.022679687E-1,2.591723204E-1,9.606734276E0
3.321039435E0,3.070563674E-1,3.070563674E-1,9.645041466E0
3.323037508E0,2.974795699E-1,3.932476342E-1,9.965864182E0
3.325035581E0,2.160767019E-1,4.650736749E-1,9.870096207E0
3.327033654E0,1.346738487E-1,3.932476342E-1,9.630676270E0
3.329031726E0,1.442506462E-1,3.022679687E-1,9.625887871E0
3.331029799E0,1.729810685E-1,1.873462796E-1,1.009994030E1
3.333027872E0,1.346738487E-1,2.160767019E-1,1.038245583E1
3.335025945E0,1.011550203E-1,2.543839216E-1,9.850942612E0
3.337024018E0,9.636662155E-2,1.873462796E-1,9.391256332E0
3.339022091E0,-4.189853091E-3,2.160767019E-1,9.357737541E0
3.341020164E0,-9.516951442E-2,1.394622475E-1,9.515754700E0
3.343018237E0,-1.855506375E-2,5.327098817E-2,9.640253067E0
3.345016310E0,9.157821536E-2,2.454056777E-2,9.692925453E0
3.347014383E0,1.346738487E-1,-3.770867735E-2,9.740809441E0
3.349012456E0,9.636662155E-2,-3.292027488E-2,9.688137054E0
3.351010581E0,2.448071241E-1,1.155202314E-1,1.001374817E1
3.353008758E0,2.304419130E-1,3.262099922E-1,9.846154213E0
3.355006935E0,2.112883031E-1,3.549404144E-1,9.544485092E0
3.357005112E0,1.873462796E-1,2.400187254E-1,9.458293915E0
3.359003289E0,2.208651006E-1,5.321113467E-1,9.721655846E0
3.361001466E0,2.591723204E-1,3.070563674E-1,9.654618263E0
3.362999643E0,1.777694821E-1,2.448071241E-1,9.803058624E0
3.364997820E0,1.729810685E-1,2.879027426E-1,9.879673004E0
3.366995997E0,1.873462796E-1,1.681926697E-1,1.019570827E1
3.368994174E0,2.208651006E-1,2.735375464E-1,9.702502251E0
3.370992351E0,1.777694821E-1,1.059434265E-1,9.391256332E0
3.372990529E0,2.017114908E-1,-4.249707982E-2,9.496601105E0
3.374988706E0,3.597288132E-1,-9.762357473E-1,1.066975975E1
3.376986883E0,5.847837925E-1,-1.569997787E0,1.455315495E1
3.378985060E0,1.346738487E-1,7.523778677E-1,8.807070732E0
3.380983237E0,8.200141042E-2,1.264737010E0,5.316324711E0
3.382981414E0,1.681926697E-1,6.853402257E-1,5.953182697E0
3.384979591E0,1.969230920E-1,4.746504724E-1,8.122329712E0
3.386977768E0,2.974795699E-1,2.160767019E-1,1.029147625E1
3.388975945E0,2.926911712E-1,-1.765723825E-1,1.123958015E1
3.390974122E0,2.591723204E-1,-2.053027898E-1,1.151730728E1
3.392972299E0,1.538274586E-1,-6.165069342E-2,1.082298851E1
3.394970476E0,1.496376097E-2,1.729810685E-1,9.961075783E0
3.396968654E0,-2.334346622E-2,2.017114908E-1,9.606734276E0
3.398966831E0,1.155202314E-1,1.634042710E-1,9.625887871E0
3.400965008E0,1.873462796E-1,1.155202314E-1,1.026274586E1
3.402963185E0,8.200141042E-2,2.495955229E-1,9.989806175E0
3.404961362E0,-4.728548229E-2,3.645172119E-1,9.099164009E0
3.406959539E0,1.017535757E-2,2.735375464E-1,9.343372345E0
3.408957716E0,5.985504249E-4,2.454056777E-2,1.014782429E1
3.410955893E0,-4.249707982E-2,-9.995792061E-2,9.927556992E0
3.412954070E0,-9.516951442E-2,-2.813187055E-2,9.956287384E0
3.414952247E0,-7.601590455E-2,-1.047463268E-1,9.779116631E0
3.416950424E0,-7.122749835E-2,-8.978256024E-3,9.917980194E0
3.418948601E0,-8.978256024E-3,1.586158574E-1,9.985017776E0
3.420946779E0,-2.813187055E-2,4.219780564E-1,9.123106003E0
3.422944956E0,-4.728548229E-2,1.825578809E-1,9.295488358E0
3.424943133E0,-7.122749835E-2,1.873462796E-1,9.846154213E0
3.426941258E0,-8.559270948E-2,1.634042710E-1,1.001853657E1
3.428939383E0,-6.165069342E-2,9.636662155E-2,9.994594574E0
3.430937508E0,-6.165069342E-2,6.763619930E-2,9.487024307E0
3.432935633E0,1.975216344E-2,1.729810685E-1,9.300276756E0
3.434933758E0,1.107318252E-1,1.017535757E-2,1.008078671E1
3.436931883E0,9.157821536E-2,1.634042710E-1,1.015740108E1
3.438930008E0,3.411737457E-2,1.586158574E-1,9.922768593E0
3.440928133E0,-1.855506375E-2,-3.489548862E-1,1.017176628E1
3.442926258E0,1.011550203E-1,-9.187749028E-1,1.261863995E1
3.444924383E0,1.059434265E-1,8.050503135E-1,7.983465672E0
3.446922560E0,3.411737457E-2,1.034893632E0,6.077681065E0
3.448920789E0,1.107318252E-1,2.304419130E-1,7.926004887E0
3.450919070E0,2.735375464E-1,-8.978256024E-3,1.087087250E1
3.452917404E0,2.017114908E-1,8.200141042E-2,1.118690777E1
3.454915789E0,8.678980917E-2,-5.207388848E-2,1.015740108E1
3.456914174E0,-7.122749835E-2,3.118447661E-1,9.271546364E0
3.458912560E0,-6.165069342E-2,2.064998895E-1,9.668983459E0
3.460910945E0,1.017535757E-2,-1.478419602E-1,1.019091988E1
3.462909331E0,4.369417951E-2,-3.154360652E-1,1.047343540E1
3.464907716E0,1.107318252E-1,-4.249707982E-2,9.965864182E0
3.466906101E0,1.496376097E-2,-3.292027488E-2,9.305065155E0
3.468904487E0,2.304419130E-1,-1.095347255E-1,9.314641953E0
3.470902820E0,1.442506462E-1,9.157821536E-2,9.357737541E0
3.472901154E0,1.442506462E-1,-5.686229095E-2,9.688137054E0
3.474899487E0,1.394622475E-1,-1.478419602E-1,1.016697788E1
3.476897768E0,1.442506462E-1,1.011550203E-1,1.023880386E1
3.478895997E0,1.586158574E-1,2.448071241E-1,9.913191795E0
3.480894226E0,1.634042710E-1,2.495955229E-1,9.769539833E0
3.482892456E0,-4.249707982E-2,4.554968774E-1,9.247604370E0
3.484890685E0,-8.559270948E-2,4.842272997E-1,9.276334763E0
3.486888914E0,-4.728548229E-2,3.453635871E-1,9.099164009E0
3.488887195E0,-1.478419602E-1,1.017535757E-2,9.759963036E0
3.490885476E0,-7.601590455E-2,1.634042710E-1,1.003769016E1
3.492883758E0,-1.095347255E-1,-3.770867735E-2,9.898826599E0
3.494882091E0,-1.909375787E-1,-1.813607812E-1,9.692925453E0
3.496880476E0,-2.340332121E-1,-1.143231317E-1,9.568427086E0
3.498878914E0,-2.005143911E-1,-1.717839688E-1,9.750386238E0
3.500877404E0,-1.855506375E-2,-2.579752207E-1,1.009515190E1
3.502875945E0,-9.995792061E-2,-2.334346622E-2,9.362525940E0
3.504874487E0,-9.995792061E-2,-5.686229095E-2,9.501389503E0
3.506873029E0,1.017535757E-2,-2.053027898E-1,1.009036350E1
3.508871570E0,-8.978256024E-3,-7.601590455E-2,1.001853657E1
3.510870112E0,1.017535757E-2,9.636662155E-2,9.740809441E0
3.512868706E0,2.454056777E-2,2.304419130E-1,9.606734276E0
3.514867299E0,1.250970364E-1,2.639607489E-1,9.731232643E0
3.516865893E0,1.059434265E-1,2.831143439E-1,9.721655846E0
3.518864487E0,3.411737457E-2,3.118447661E-1,9.774328232E0
3.520863081E0,-1.855506375E-2,1.729810685E-1,9.898826599E0
3.522861622E0,-1.143231317E-1,1.634042710E-1,9.640253067E0
3.524860008E0,-7.122749835E-2,5.386953708E-3,9.985017776E0
3.526858185E0,-3.770867735E-2,-6.643909961E-2,1.006642151E1
3.528856362E0,-9.516951442E-2,6.763619930E-2,9.295488358E0
3.530854383E0,-1.717839688E-1,-4.249707982E-2,9.400833130E0
3.532852404E0,-1.286883354E-1,-4.728548229E-2,1.006642151E1
3.534850424E0,-1.765723825E-1,1.298854351E-1,9.544485092E0
3.536848445E0,-1.478419602E-1,3.411737457E-2,9.798270226E0
3.538846466E0,-4.249707982E-2,1.298854351E-1,9.683348656E0
3.540844487E0,-3.770867735E-2,-8.978256024E-3,9.525331497E0
3.542842508E0,1.496376097E-2,-2.436100245E-1,9.678560257E0
3.544840529E0,-9.038111567E-2,-1.191115379E-1,9.582792282E0
3.546838549E0,-2.334346622E-2,-7.601590455E-2,9.841365814E0
3.548836570E0,3.411737457E-2,-3.770867735E-2,9.635464668E0
3.550834591E0,2.454056777E-2,5.386953708E-3,9.530119896E0
3.552832664E0,3.411737457E-2,5.327098817E-2,9.367314339E0
3.554830789E0,9.157821536E-2,-2.627636492E-1,9.750386238E0
3.556828966E0,1.921346933E-1,-5.787982345E-1,1.082298851E1
3.558827195E0,3.890577704E-2,1.298854351E-1,9.788693428E0
3.560825476E0,4.369417951E-2,3.693056107E-1,9.233239174E0
3.562823810E0,5.985504249E-4,2.831143439E-1,9.281123161E0
3.564822195E0,1.203086376E-1,3.890577704E-2,9.530119896E0
3.566820633E0,1.107318252E-1,5.327098817E-2,9.951498985E0
3.568819122E0,3.890577704E-2,2.017114908E-1,9.836577415E0
3.570817664E0,8.200141042E-2,5.985504249E-4,9.764751434E0
3.572816206E0,9.636662155E-2,-6.165069342E-2,1.010951710E1
3.574814747E0,5.985504249E-4,6.284779310E-2,9.946710587E0
3.576813289E0,-4.189853091E-3,3.411737457E-2,9.932345390E0
3.578811831E0,-3.770867735E-2,1.107318252E-1,9.563638687E0
3.580810164E0,1.017535757E-2,-8.559270948E-2,9.549273491E0
3.582808445E0,-8.559270948E-2,-2.334346622E-2,9.151836395E0
3.584806726E0,-5.686229095E-2,-9.038111567E-2,9.769539833E0
3.586805008E0,5.985504249E-4,-1.238999367E-1,1.022443867E1
3.588803237E0,-4.249707982E-2,-8.080431074E-2,9.874884605E0
3.590801466E0,1.975216344E-2,-6.643909961E-2,9.386467934E0
3.592799695E0,6.763619930E-2,-1.765723825E-1,9.419986725E0
3.594797924E0,4.369417951E-2,-6.643909961E-2,9.338583946E0
3.596796154E0,1.394622475E-1,-7.122749835E-2,9.750386238E0
3.598794383E0,1.250970364E-1,5.985504249E-4,9.860519409E0
3.600792612E0,1.634042710E-1,6.763619930E-2,9.544485092E0
3.602790841E0,9.157821536E-2,2.932897024E-2,9.736021042E0
3.604789070E0,1.729810685E-1,-3.968389332E-1,1.045428181E1
3.606787299E0,2.208651006E-1,-2.244564146E-1,1.032020664E1
3.608785529E0,1.298854351E-1,9.157821536E-2,9.276334763E0
3.610783758E0,1.490390599E-1,2.454056777E-2,9.333795547E0
3.612781987E0,2.256535143E-1,2.932897024E-2,9.549273491E0
3.614780216E0,1.921346933E-1,2.454056777E-2,1.017176628E1
3.616778445E0,2.160767019E-1,1.298854351E-1,9.683348656E0
3.618776674E0,2.926911712E-1,-1.376665942E-2,9.554061890E0
3.620774904E0,1.681926697E-1,1.825578809E-1,9.640253067E0
3.622773133E0,9.636662155E-2,3.166331649E-1,9.453505516E0
3.624771362E0,1.059434265E-1,2.448071241E-1,9.750386238E0
3.626769591E0,9.636662155E-2,1.203086376E-1,9.956287384E0
3.628767716E0,9.157821536E-2,-4.728548229E-2,1.033457184E1
3.630765685E0,2.932897024E-2,2.639607489E-1,9.850942612E0
3.632763654E0,2.454056777E-2,3.070563674E-1,9.376891136E0
3.634761622E0,-3.770867735E-2,3.836708367E-1,9.271546364E0
3.636759591E0,-5.686229095E-2,2.400187254E-1,9.381679535E0
3.638757560E0,-1.526303589E-1,-4.189853091E-3,9.688137054E0
3.640755529E0,-8.080431074E-2,-8.978256024E-3,9.726444244E0
3.642753497E0,-1.334767491E-1,-1.526303589E-1,9.956287384E0
3.644751466E0,-1.909375787E-1,-2.292448133E-1,1.002332497E1
3.646749487E0,-1.286883354E-1,-1.286883354E-1,9.932345390E0
3.648747560E0,-1.430535465E-1,-1.957259923E-1,9.788693428E0
3.650745685E0,-1.191115379E-1,-2.436100245E-1,9.357737541E0
3.652743862E0,-8.080431074E-2,-3.154360652E-1,9.463082314E0
3.654742039E0,-1.095347255E-1,-2.962824702E-1,9.410409927E0
3.656740216E0,-4.728548229E-2,-3.681085110E-1,9.774328232E0
3.658738445E0,-4.728548229E-2,-4.303577542E-1,9.793481827E0
3.660736674E0,-5.686229095E-2,-3.585317135E-1,9.841365814E0
3.662734904E0,-1.376665942E-2,-1.526303589E-1,9.702502251E0
3.664733133E0,-8.080431074E-2,-1.526303589E-1,9.525331497E0
3.666731362E0,-8.559270948E-2,-2.053027898E-1,9.563638687E0
3.668729591E0,-1.855506375E-2,-2.053027898E-1,9.922768593E0
3.670727820E0,-9.995792061E-2,-8.978256024E-3,1.001853657E1
3.672725893E0,-1.478419602E-1,1.298854351E-1,9.999382973E0
3.674723966E0,-9.516951442E-2,1.017535757E-2,9.683348656E0
3.676722039E0,-3.292027488E-2,-5.686229095E-2,9.477447510E0
3.678720112E0,3.411737457E-2,1.490390599E-1,9.712079048E0
3.680718185E0,2.454056777E-2,2.400187254E-1,9.721655846E0
3.682716258E0,5.805939063E-2,5.327098817E-2,9.764751434E0
3.684714331E0,-8.978256024E-3,7.721300423E-2,9.645041466E0
3.686712404E0,-3.770867735E-2,-4.189853091E-3,9.697713852E0
3.688710476E0,1.975216344E-2,-1.574187577E-1,9.961075783E0
3.690708549E0,-1.376665942E-2,-3.770867735E-2,9.731232643E0
3.692706622E0,3.890577704E-2,-4.249707982E-2,9.798270226E0
3.694704695E0,-3.292027488E-2,1.346738487E-1,9.410409927E0
3.696702560E0,5.386953708E-3,6.284779310E-2,9.563638687E0
3.698700424E0,-2.813187055E-2,9.636662155E-2,9.846154213E0
3.700698289E0,5.985504249E-4,1.490390599E-1,9.860519409E0
3.702696154E0,1.017535757E-2,1.496376097E-2,9.985017776E0
3.704694018E0,2.932897024E-2,1.250970364E-1,9.721655846E0
3.706691883E0,1.975216344E-2,2.400187254E-1,9.616311073E0
3.708689799E0,-2.334346622E-2,9.157821536E-2,9.458293915E0
3.710687768E0,4.848258570E-2,-1.909375787E-1,9.563638687E0
3.712685789E0,7.721300423E-2,-2.483984232E-1,1.013824749E1
3.714683862E0,8.678980917E-2,-2.867056429E-1,1.005684471E1
3.716681987E0,5.805939063E-2,-2.675520480E-1,9.673771858E0
3.718680164E0,9.157821536E-2,-2.914940715E-1,9.783905029E0
3.720678393E0,1.017535757E-2,-1.334767491E-1,9.238027573E0
3.722676622E0,-1.855506375E-2,-4.728548229E-2,9.252392769E0
3.724674851E0,1.496376097E-2,-2.196680009E-1,9.692925453E0
3.726673081E0,1.203086376E-1,-1.622071713E-1,1.011909389E1
3.728671310E0,5.805939063E-2,1.107318252E-1,9.721655846E0
3.730669539E0,5.805939063E-2,-2.334346622E-2,9.884461403E0
3.732667768E0,1.059434265E-1,-1.095347255E-1,1.009515190E1
3.734665789E0,5.327098817E-2,1.729810685E-1,9.898826599E0
3.736663706E0,5.327098817E-2,2.112883031E-1,9.563638687E0
3.738661622E0,4.369417951E-2,1.250970364E-1,9.496601105E0
3.740659539E0,3.411737457E-2,-1.855506375E-2,9.386467934E0
3.742657456E0,9.636662155E-2,-9.038111567E-2,9.659406662E0
3.744655372E0,1.155202314E-1,-6.643909961E-2,9.745597839E0
3.746653289E0,1.394622475E-1,5.386953708E-3,9.601945877E0
3.748651206E0,1.634042710E-1,-1.526303589E-1,9.678560257E0
3.750649122E0,1.634042710E-1,-1.957259923E-1,9.654618263E0
3.752647039E0,2.112883031E-1,-2.244564146E-1,9.793481827E0
3.754644956E0,2.352303118E-1,-2.531868219E-1,1.011909389E1
3.756642872E0,2.160767019E-1,-1.478419602E-1,1.002811337E1
3.758640789E0,1.634042710E-1,6.284779310E-2,9.817423820E0
3.760638706E0,1.298854351E-1,1.490390599E-1,9.247604370E0
3.762636674E0,1.634042710E-1,8.678980917E-2,9.530119896E0
3.764634695E0,1.777694821E-1,2.160767019E-1,9.697713852E0
3.766632768E0,2.256535143E-1,2.932897024E-2,1.012867069E1
3.768630893E0,1.969230920E-1,-1.574187577E-1,9.965864182E0
3.770629018E0,2.160767019E-1,-5.207388848E-2,9.803058624E0
3.772627143E0,2.639607489E-1,-6.165069342E-2,9.956287384E0
3.774625268E0,2.591723204E-1,-2.388216257E-1,9.649829865E0
3.776623393E0,2.304419130E-1,-2.292448133E-1,9.487024307E0
3.778621518E0,3.022679687E-1,1.017535757E-2,9.238027573E0
3.780619643E0,2.879027426E-1,2.932897024E-2,9.348160744E0
3.782617768E0,2.783259451E-1,-1.382651478E-1,9.726444244E0
3.784615893E0,3.549404144E-1,-1.047463268E-1,9.913191795E0
3.786614018E0,4.028244317E-1,1.011550203E-1,9.558850288E0
3.788612143E0,4.363432527E-1,4.369417951E-2,9.994594574E0
3.790610112E0,4.363432527E-1,4.848258570E-2,9.999382973E0
3.792608081E0,4.363432527E-1,2.831143439E-1,9.692925453E0
3.794606049E0,3.980360329E-1,2.448071241E-1,9.573215485E0
3.796604018E0,4.315548539E-1,2.495955229E-1,9.716867447E0
3.798601987E0,4.890156984E-1,3.597288132E-1,9.429563522E0
3.800599956E0,3.884592354E-1,3.645172119E-1,9.563638687E0
3.802597924E0,3.262099922E-1,2.256535143E-1,9.884461403E0
3.804595893E0,3.884592354E-1,1.203086376E-1,9.908403397E0
3.806593862E0,3.932476342E-1,2.932897024E-2,9.874884605E0
3.808591883E0,3.405751884E-1,-1.430535465E-1,9.692925453E0
3.810589956E0,3.980360329E-1,-5.207388848E-2,9.736021042E0
3.812588081E0,3.549404144E-1,6.763619930E-2,9.678560257E0
3.814586258E0,3.501519859E-1,2.591723204E-1,9.510966301E0
3.816584487E0,2.591723204E-1,3.214215636E-1,9.563638687E0
3.818582768E0,2.639607489E-1,1.107318252E-1,9.333795547E0
3.820581049E0,2.208651006E-1,1.442506462E-1,9.870096207E0
3.822579331E0,3.022679687E-1,2.160767019E-1,1.017655468E1
3.824577664E0,1.681926697E-1,2.208651006E-1,9.874884605E0
3.826575997E0,1.777694821E-1,3.549404144E-1,9.578003883E0
3.828574383E0,2.304419130E-1,2.495955229E-1,9.846154213E0
3.830572820E0,1.921346933E-1,4.267664552E-1,9.870096207E0
3.832571258E0,1.777694821E-1,4.411316514E-1,9.649829865E0
3.834569695E0,1.394622475E-1,4.602852762E-1,9.750386238E0
3.836568133E0,2.017114908E-1,7.715315223E-1,9.300276756E0
3.838566570E0,1.155202314E-1,5.177460909E-1,9.678560257E0
3.840565008E0,7.242459804E-2,-4.542997777E-1,1.174236202E1
3.842563445E0,2.932897024E-2,4.076128304E-1,9.372102737E0
3.844561831E0,2.454056777E-2,8.385691643E-1,8.572439194E0
3.846560060E0,-4.189853091E-3,6.183025837E-1,9.410409927E0
3.848558185E0,1.975216344E-2,1.729810685E-1,1.030584145E1
3.850556310E0,-3.770867735E-2,3.693056107E-1,9.807847023E0
3.852554226E0,-4.189853091E-3,3.788824081E-1,9.558850288E0
3.854552143E0,-2.334346622E-2,2.543839216E-1,9.721655846E0
3.856550060E0,-7.122749835E-2,4.315548539E-1,9.233239174E0
3.858547976E0,-2.334346622E-2,3.166331649E-1,9.558850288E0
3.860545893E0,-2.334346622E-2,-1.376665942E-2,1.036330223E1
3.862543810E0,-5.686229095E-2,2.112883031E-1,9.578003883E0
3.864541726E0,-5.686229095E-2,3.836708367E-1,9.099164009E0
3.866539695E0,-4.728548229E-2,1.969230920E-1,9.870096207E0
3.868537716E0,-8.978256024E-3,2.448071241E-1,9.721655846E0
3.870535789E0,-4.728548229E-2,3.645172119E-1,9.419986725E0
3.872533914E0,-8.559270948E-2,2.208651006E-1,9.582792282E0
3.874532091E0,5.985504249E-4,1.250970364E-1,9.779116631E0
3.876530268E0,-8.080431074E-2,5.386953708E-3,9.855731010E0
3.878528445E0,-9.995792061E-2,2.495955229E-1,9.592369080E0
3.880526622E0,1.017535757E-2,1.729810685E-1,9.554061890E0
3.882524799E0,1.298854351E-1,5.985504249E-4,1.006163311E1
3.884522976E0,1.825578809E-1,5.805939063E-2,9.941922188E0
3.886521154E0,1.538274586E-1,1.298854351E-1,1.003290176E1
3.888519331E0,1.298854351E-1,4.315548539E-1,9.400833130E0
3.890517508E0,1.442506462E-1,3.070563674E-1,9.759963036E0
3.892515685E0,1.298854351E-1,3.262099922E-1,1.000895977E1
3.894513862E0,1.825578809E-1,4.459200799E-1,9.659406662E0
3.896512039E0,1.442506462E-1,3.118447661E-1,9.601945877E0
3.898510216E0,1.298854351E-1,3.214215636E-1,9.362525940E0
3.900508393E0,2.400187254E-1,2.831143439E-1,9.783905029E0
3.902506570E0,2.639607489E-1,1.825578809E-1,9.510966301E0
3.904504747E0,3.309983909E-1,1.969230920E-1,9.879673004E0
3.906502924E0,3.740940094E-1,2.208651006E-1,9.788693428E0
3.908501101E0,3.932476342E-1,2.454056777E-2,1.022922707E1
3.910499279E0,3.262099922E-1,9.157821536E-2,9.941922188E0
3.912497456E0,2.783259451E-1,3.836708367E-1,9.496601105E0
3.914495685E0,3.740940094E-1,5.273229480E-1,9.209297180E0
3.916493966E0,3.405751884E-1,3.693056107E-1,1.002811337E1
3.918492299E0,3.693056107E-1,4.171896577E-1,1.023880386E1
3.920490685E0,3.118447661E-1,6.757634282E-1,9.654618263E0
3.922489122E0,1.873462796E-1,6.566098332E-1,9.487024307E0
3.924487612E0,1.873462796E-1,4.028244317E-1,9.932345390E0
3.926486154E0,1.442506462E-1,5.225345492E-1,9.922768593E0
3.928484695E0,1.107318252E-1,6.518214345E-1,9.467870712E0
3.930483237E0,2.256535143E-1,3.309983909E-1,1.026274586E1
3.932481779E0,1.586158574E-1,4.171896577E-1,9.975440979E0
3.934480320E0,1.298854351E-1,4.363432527E-1,9.836577415E0
3.936478497E0,1.921346933E-1,5.177460909E-1,9.630676270E0
3.938476674E0,7.242459804E-2,5.512649417E-1,9.472659111E0
3.940474851E0,-4.189853091E-3,2.543839216E-1,9.951498985E0
3.942472924E0,5.386953708E-3,2.256535143E-1,9.736021042E0
3.944470997E0,1.496376097E-2,4.411316514E-1,9.056067467E0
3.946469070E0,-2.813187055E-2,3.166331649E-1,9.501389503E0
3.948467143E0,-6.643909961E-2,1.729810685E-1,1.005684471E1
3.950465216E0,-1.191115379E-1,1.586158574E-1,9.597157478E0
3.952463341E0,-1.669955701E-1,2.017114908E-1,9.285911560E0
3.954461518E0,-2.005143911E-1,3.597288132E-1,9.510966301E0
3.956459747E0,-1.382651478E-1,2.400187254E-1,9.692925453E0
3.958458029E0,-4.728548229E-2,-4.249707982E-2,9.999382973E0
3.960456362E0,-1.286883354E-1,-5.686229095E-2,1.021965027E1
3.962454747E0,-1.669955701E-1,1.825578809E-1,9.740809441E0
3.964453185E0,-6.643909961E-2,9.636662155E-2,9.668983459E0
3.966451674E0,4.369417951E-2,7.242459804E-2,9.817423820E0
3.968450216E0,6.763619930E-2,2.017114908E-1,9.865307808E0
3.970448758E0,1.634042710E-1,4.554968774E-1,9.554061890E0
3.972447299E0,1.873462796E-1,3.453635871E-1,9.645041466E0
3.974445841E0,1.490390599E-1,3.309983909E-1,9.621099472E0
3.976444383E0,1.634042710E-1,3.166331649E-1,9.534908295E0
3.978442924E0,2.495955229E-1,2.639607489E-1,9.611522675E0
3.980441466E0,1.011550203E-1,3.166331649E-1,9.764751434E0
3.982440008E0,1.442506462E-1,4.171896577E-1,9.400833130E0
3.984438081E0,1.825578809E-1,2.687491477E-1,9.788693428E0
3.986436101E0,1.490390599E-1,1.921346933E-1,9.736021042E0
3.988434122E0,2.112883031E-1,2.448071241E-1,9.668983459E0
3.990432143E0,2.352303118E-1,2.256535143E-1,9.688137054E0
3.992430164E0,2.304419130E-1,1.442506462E-1,1.002332497E1
3.994428185E0,1.681926697E-1,1.442506462E-1,9.917980194E0
3.996426206E0,1.490390599E-1,2.831143439E-1,9.721655846E0
3.998424279E0,1.681926697E-1,2.879027426E-1,9.587580681E0
4.000422404E0,1.490390599E-1,3.357867897E-1,9.894038200E0
4.002420581E0,2.495955229E-1,3.309983909E-1,1.003769016E1
4.004418810E0,1.681926697E-1,5.464765429E-1,9.410409927E0
4.006417091E0,1.634042710E-1,6.135141850E-1,9.223662376E0
4.008415424E0,1.634042710E-1,3.166331649E-1,9.874884605E0
4.010413810E0,7.242459804E-2,4.171896577E-1,9.922768593E0
4.012412247E0,1.107318252E-1,6.805518270E-1,9.597157478E0
4.014410737E0,3.890577704E-2,7.475894690E-1,9.769539833E0
4.016409279E0,5.386953708E-3,4.602852762E-1,1.019091988E1
4.018407872E0,-9.038111567E-2,3.884592354E-1,9.807847023E0
4.020406518E0,-1.286883354E-1,7.523778677E-1,9.032125473E0
4.022405216E0,-1.047463268E-1,5.512649417E-1,9.405621529E0
4.024403966E0,-1.765723825E-1,2.304419130E-1,1.032499504E1
4.026402716E0,-1.861491799E-1,1.017535757E-2,1.067933655E1
4.028401466E0,-2.531868219E-1,1.298854351E-1,9.989806175E0
4.030400216E0,-3.298012912E-1,1.634042710E-1,9.951498985E0
4.032398706E0,-2.962824702E-1,2.735375464E-1,9.640253067E0
4.034397143E0,-2.819172442E-1,2.879027426E-1,9.712079048E0
4.036395268E0,-2.388216257E-1,3.597288132E-1,9.716867447E0
4.038393393E0,-1.861491799E-1,4.363432527E-1,9.534908295E0
4.040391518E0,-2.340332121E-1,5.368997455E-1,9.501389503E0
4.042389643E0,-3.106476665E-1,5.608417392E-1,9.238027573E0
4.044387768E0,-3.058592677E-1,4.315548539E-1,9.578003883E0
4.046385893E0,-3.202244639E-1,1.346738487E-1,9.961075783E0
4.048384018E0,-3.489548862E-1,1.442506462E-1,9.357737541E0
4.050382143E0,-3.537433147E-1,1.634042710E-1,9.185355186E0
4.052380268E0,-3.824737072E-1,1.825578809E-1,9.132682800E0
4.054378393E0,-2.005143911E-1,1.975216344E-2,9.606734276E0
4.056376518E0,-1.855506375E-2,-1.717839688E-1,1.018134308E1
4.058374643E0,5.386953708E-3,-8.978256024E-3,9.640253067E0
4.060372768E0,-1.376665942E-2,-4.249707982E-2,9.827000618E0
4.062370893E0,-3.770867735E-2,5.985504249E-4,1.004247856E1
4.064369018E0,7.242459804E-2,5.386953708E-3,1.036330223E1
4.066367143E0,-4.189853091E-3,5.386953708E-3,1.031541824E1
4.068365320E0,-4.249707982E-2,2.208651006E-1,9.788693428E0
4.070363549E0,5.327098817E-2,3.405751884E-1,9.443928719E0
4.072361779E0,-8.978256024E-3,6.326677799E-1,9.118317604E0
4.074360008E0,1.496376097E-2,4.794389009E-1,9.850942612E0
4.076358237E0,3.890577704E-2,4.028244317E-1,9.956287384E0
4.078356466E0,1.496376097E-2,3.980360329E-1,9.846154213E0
4.080354695E0,-6.643909961E-2,6.087257862E-1,9.060855865E0
4.082352976E0,5.805939063E-2,3.405751884E-1,9.396044731E0
4.084351258E0,4.848258570E-2,1.634042710E-1,1.012388229E1
