"Time (s)","Acceleration x (m/s^2)","Acceleration y (m/s^2)","Acceleration z (m/s^2)"
2.300052600E-2,-4.728548229E-2,1.442506462E-1,9.759963036E0
2.402703700E-2,-7.601590455E-2,1.155202314E-1,9.779116631E0
2.599224500E-2,-6.643909961E-2,1.107318252E-1,9.764751434E0
2.795745300E-2,-7.122749835E-2,1.346738487E-1,9.759963036E0
2.992266200E-2,-3.292027488E-2,1.298854351E-1,9.769539833E0
3.187781800E-2,3.890577704E-2,2.687491477E-1,9.750386238E0
3.384302600E-2,5.805939063E-2,1.825578809E-1,9.664195061E0
3.580823500E-2,2.454056777E-2,1.442506462E-1,9.659406662E0
3.777344300E-2,2.454056777E-2,1.059434265E-1,9.745597839E0
3.973865100E-2,2.454056777E-2,7.242459804E-2,9.850942612E0
4.170386000E-2,1.975216344E-2,5.327098817E-2,9.865307808E0
4.366906800E-2,3.890577704E-2,4.369417951E-2,9.870096207E0
4.563427600E-2,-4.189853091E-3,1.011550203E-1,9.870096207E0
4.759948500E-2,-3.770867735E-2,1.346738487E-1,9.831789017E0
4.956469300E-2,-8.080431074E-2,2.448071241E-1,9.783905029E0
5.152990100E-2,-6.165069342E-2,2.448071241E-1,9.635464668E0
5.349511000E-2,-9.038111567E-2,1.394622475E-1,9.587580681E0
5.546031800E-2,-5.207388848E-2,1.059434265E-1,9.731232643E0
5.742552600E-2,5.985504249E-4,8.200141042E-2,9.913191795E0
5.939073500E-2,5.327098817E-2,1.298854351E-1,1.000417137E1
6.135594300E-2,9.636662155E-2,1.634042710E-1,1.001853657E1
6.332115100E-2,1.011550203E-1,1.873462796E-1,1.000417137E1
6.528636000E-2,1.298854351E-1,2.017114908E-1,1.000895977E1
6.725156800E-2,1.586158574E-1,2.304419130E-1,9.956287384E0
6.921677600E-2,2.112883031E-1,1.490390599E-1,9.894038200E0
7.118198500E-2,1.586158574E-1,1.490390599E-1,9.836577415E0
7.314719300E-2,1.298854351E-1,1.346738487E-1,9.855731010E0
7.511240100E-2,7.242459804E-2,1.442506462E-1,9.865307808E0
7.707761000E-2,9.157821536E-2,1.394622475E-1,9.874884605E0
7.904281800E-2,9.636662155E-2,1.729810685E-1,9.865307808E0
8.100802600E-2,8.200141042E-2,1.681926697E-1,9.831789017E0
8.297323500E-2,5.327098817E-2,1.873462796E-1,9.764751434E0
8.493844300E-2,3.890577704E-2,2.017114908E-1,9.764751434E0
8.690443200E-2,3.411737457E-2,1.921346933E-1,9.755174637E0
8.887245300E-2,3.890577704E-2,2.017114908E-1,9.745597839E0
9.084359900E-2,3.411737457E-2,1.634042710E-1,9.740809441E0
9.281880700E-2,5.327098817E-2,1.490390599E-1,9.731232643E0
9.479886000E-2,5.327098817E-2,1.346738487E-1,9.721655846E0
9.678427600E-2,7.242459804E-2,1.298854351E-1,9.716867447E0
9.877531800E-2,1.107318252E-1,1.634042710E-1,9.688137054E0
1.007719850E-1,1.921346933E-1,2.926911712E-1,9.678560257E0
1.027741200E-1,2.591723204E-1,1.777694821E-1,9.683348656E0
1.047813070E-1,1.969230920E-1,6.763619930E-2,9.678560257E0
1.067929740E-1,1.203086376E-1,-1.855506375E-2,9.707290649E0
1.088083910E-1,1.155202314E-1,-5.686229095E-2,9.740809441E0
1.108266720E-1,1.250970364E-1,-4.728548229E-2,9.812635422E0
1.128468800E-1,1.586158574E-1,-3.292027488E-2,9.807847023E0
1.148680780E-1,1.490390599E-1,1.975216344E-2,9.798270226E0
1.168892760E-1,2.256535143E-1,2.735375464E-1,9.783905029E0
1.188874010E-1,2.543839216E-1,2.543839216E-1,9.721655846E0
1.208852140E-1,1.969230920E-1,2.495955229E-1,9.692925453E0
1.228829740E-1,1.059434265E-1,2.208651006E-1,9.769539833E0
1.248804740E-1,1.975216344E-2,1.634042710E-1,9.822212219E0
1.268779740E-1,-3.292027488E-2,2.017114908E-1,9.922768593E0
1.288754740E-1,-4.249707982E-2,3.214215636E-1,9.975440979E0
1.308729740E-1,-6.165069342E-2,4.985924959E-1,9.946710587E0
1.328704740E-1,-1.191115379E-1,6.709750295E-1,9.841365814E0
1.348679740E-1,-1.478419602E-1,7.619546652E-1,9.764751434E0
1.368654740E-1,-1.574187577E-1,8.577227592E-1,9.745597839E0
1.388629740E-1,-1.334767491E-1,8.912416101E-1,9.712079048E0
1.408604740E-1,-9.995792061E-2,9.151836038E-1,9.716867447E0
1.428579740E-1,-7.122749835E-2,9.295488000E-1,9.721655846E0
1.448554740E-1,-8.080431074E-2,9.582792521E-1,9.726444244E0
1.468530260E-1,-6.165069342E-2,9.199720025E-1,9.716867447E0
1.488506300E-1,-1.334767491E-1,8.098387122E-1,9.774328232E0
1.508482870E-1,-1.909375787E-1,7.763199210E-1,9.764751434E0
1.528459950E-1,-2.388216257E-1,7.044938207E-1,9.716867447E0
1.548437550E-1,-2.627636492E-1,6.901286244E-1,9.736021042E0
1.568415680E-1,-2.531868219E-1,7.236474752E-1,9.712079048E0
1.588394320E-1,-2.531868219E-1,7.667431235E-1,9.707290649E0
1.608372970E-1,-2.244564146E-1,7.380126715E-1,9.697713852E0
1.628351620E-1,-2.244564146E-1,6.949170232E-1,9.721655846E0
1.648330260E-1,-2.005143911E-1,7.332242727E-1,9.731232643E0
1.668304220E-1,-1.765723825E-1,7.715315223E-1,9.697713852E0
1.688277140E-1,-1.286883354E-1,7.954735160E-1,9.673771858E0
1.708250050E-1,-1.143231317E-1,7.763199210E-1,9.755174637E0
1.728222970E-1,-9.995792061E-2,7.906851172E-1,9.745597839E0
1.748195890E-1,-9.995792061E-2,7.571662664E-1,9.807847023E0
1.768169320E-1,-7.601590455E-2,7.763199210E-1,9.726444244E0
1.788143280E-1,-5.207388848E-2,7.906851172E-1,9.645041466E0
1.808117760E-1,-3.770867735E-2,7.811083198E-1,9.601945877E0
1.828092760E-1,-1.376665942E-2,7.763199210E-1,9.625887871E0
1.848068280E-1,1.496376097E-2,7.811083198E-1,9.640253067E0
1.868044320E-1,5.985504249E-4,7.523778677E-1,9.597157478E0
1.888020370E-1,3.411737457E-2,6.805518270E-1,9.597157478E0
1.907996410E-1,2.454056777E-2,7.332242727E-1,9.616311073E0
1.927972450E-1,-4.189853091E-3,7.092822790E-1,9.534908295E0
1.947948490E-1,-2.813187055E-2,6.757634282E-1,9.544485092E0
1.967924530E-1,-3.292027488E-2,6.518214345E-1,9.558850288E0
1.987901100E-1,-4.189853091E-3,6.661866307E-1,9.534908295E0
2.007878180E-1,-2.334346622E-2,6.135141850E-1,9.587580681E0
2.027855260E-1,-1.855506375E-2,6.613982320E-1,9.592369080E0
2.047832350E-1,2.932897024E-2,7.332242727E-1,9.525331497E0
2.067809430E-1,1.017535757E-2,6.997054219E-1,9.525331497E0
2.087786510E-1,-5.207388848E-2,6.039373875E-1,9.515754700E0
2.107761510E-1,-4.728548229E-2,5.560533404E-1,9.506177902E0
2.127735470E-1,-3.292027488E-2,5.368997455E-1,9.549273491E0
2.147707350E-1,-4.249707982E-2,5.273229480E-1,9.592369080E0
2.167679220E-1,-5.686229095E-2,4.985924959E-1,9.549273491E0
2.187651100E-1,-3.770867735E-2,5.273229480E-1,9.573215485E0
2.207622970E-1,-4.728548229E-2,5.225345492E-1,9.616311073E0
2.227594850E-1,-4.249707982E-2,5.608417392E-1,9.635464668E0
2.247566720E-1,-4.249707982E-2,6.087257862E-1,9.721655846E0
2.267539120E-1,-9.038111567E-2,6.805518270E-1,9.721655846E0
2.287512030E-1,-1.382651478E-1,6.997054219E-1,9.673771858E0
2.307485470E-1,-1.286883354E-1,7.428010702E-1,9.697713852E0
2.327459430E-1,-7.601590455E-2,7.715315223E-1,9.726444244E0
2.347433910E-1,-5.686229095E-2,7.858967185E-1,9.740809441E0
2.367408910E-1,-7.122749835E-2,7.667431235E-1,9.774328232E0
2.387384430E-1,-9.038111567E-2,6.853402257E-1,9.779116631E0
2.407360470E-1,-4.728548229E-2,6.853402257E-1,9.817423820E0
2.427337030E-1,-4.249707982E-2,7.092822790E-1,9.884461403E0
2.447314120E-1,-8.978256024E-3,6.566098332E-1,9.965864182E0
2.467291200E-1,3.411737457E-2,5.799953341E-1,9.917980194E0
2.487268280E-1,5.805939063E-2,4.650736749E-1,9.961075783E0
2.507245370E-1,2.064998895E-1,4.650736749E-1,1.003290176E1
2.527222450E-1,3.022679687E-1,4.171896577E-1,1.003290176E1
2.547199530E-1,3.932476342E-1,3.932476342E-1,1.010951710E1
2.567176620E-1,4.554968774E-1,3.597288132E-1,1.020049667E1
2.587153700E-1,4.842272997E-1,3.309983909E-1,1.020049667E1
2.607130780E-1,4.650736749E-1,2.974795699E-1,1.015261269E1
2.627106300E-1,4.698620737E-1,3.309983909E-1,1.004247856E1
2.647080260E-1,4.507084787E-1,3.070563674E-1,9.903614998E0
2.667054220E-1,4.411316514E-1,3.453635871E-1,9.870096207E0
2.687028180E-1,4.363432527E-1,4.746504724E-1,9.812635422E0
2.707002140E-1,4.076128304E-1,5.943605900E-1,9.731232643E0
2.726976100E-1,3.118447661E-1,5.129576921E-1,9.668983459E0
2.746950050E-1,2.687491477E-1,5.656301379E-1,9.683348656E0
2.766924010E-1,2.160767019E-1,5.704185367E-1,9.654618263E0
2.786897970E-1,1.586158574E-1,5.656301379E-1,9.597157478E0
2.806871930E-1,7.721300423E-2,4.938040972E-1,9.601945877E0
2.826845890E-1,4.848258570E-2,4.698620737E-1,9.621099472E0
2.846819850E-1,4.848258570E-2,4.124012291E-1,9.587580681E0
2.866794320E-1,3.890577704E-2,4.124012291E-1,9.534908295E0
2.886769320E-1,8.200141042E-2,4.363432527E-1,9.520543098E0
2.906744850E-1,9.157821536E-2,4.890156984E-1,9.506177902E0
2.926720890E-1,1.490390599E-1,5.273229480E-1,9.424775124E0
2.946697450E-1,1.394622475E-1,5.033808947E-1,9.333795547E0
2.966674530E-1,1.346738487E-1,6.183025837E-1,9.429563522E0
2.986652140E-1,9.636662155E-2,5.225345492E-1,9.424775124E0
3.006629740E-1,8.200141042E-2,4.650736749E-1,9.467870712E0
3.026607350E-1,3.890577704E-2,4.794389009E-1,9.578003883E0
3.046584950E-1,3.890577704E-2,3.549404144E-1,9.510966301E0
3.066562550E-1,1.017535757E-2,4.028244317E-1,9.721655846E0
3.086540160E-1,-1.376665942E-2,3.214215636E-1,9.779116631E0
3.106517760E-1,-4.728548229E-2,3.453635871E-1,9.855731010E0
3.126495370E-1,-1.047463268E-1,2.974795699E-1,9.908403397E0
3.146468280E-1,-1.526303589E-1,3.022679687E-1,9.927556992E0
3.166441200E-1,-2.244564146E-1,3.645172119E-1,9.937133789E0
3.186414120E-1,-2.962824702E-1,3.405751884E-1,9.870096207E0
3.206387030E-1,-2.962824702E-1,3.836708367E-1,9.913191795E0
3.226359950E-1,-2.914940715E-1,4.219780564E-1,9.874884605E0
3.246332870E-1,-3.154360652E-1,3.980360329E-1,9.731232643E0
3.266305780E-1,-3.010708690E-1,4.938040972E-1,9.750386238E0
3.286278700E-1,-3.058592677E-1,4.890156984E-1,9.779116631E0
3.306252140E-1,-2.867056429E-1,5.464765429E-1,9.831789017E0
3.326226100E-1,-2.531868219E-1,5.273229480E-1,9.831789017E0
3.346200570E-1,-2.148796022E-1,5.273229480E-1,9.822212219E0
3.366175570E-1,-2.053027898E-1,4.938040972E-1,9.855731010E0
3.386151100E-1,-1.861491799E-1,5.560533404E-1,9.908403397E0
3.406127140E-1,-1.861491799E-1,5.177460909E-1,9.917980194E0
3.426103180E-1,-2.148796022E-1,4.650736749E-1,9.908403397E0
3.446079740E-1,-1.765723825E-1,5.081692934E-1,9.889249802E0
3.466056300E-1,-1.622071713E-1,4.746504724E-1,9.822212219E0
3.486032870E-1,-1.957259923E-1,4.076128304E-1,9.807847023E0
3.506009430E-1,-1.430535465E-1,4.985924959E-1,9.879673004E0
3.525985990E-1,-1.574187577E-1,4.698620737E-1,9.917980194E0
3.545962550E-1,-1.382651478E-1,4.459200799E-1,9.874884605E0
3.565939120E-1,-1.143231317E-1,4.171896577E-1,9.807847023E0
3.585915680E-1,-1.143231317E-1,3.597288132E-1,9.764751434E0
3.605892240E-1,-8.080431074E-2,2.831143439E-1,9.769539833E0
3.625868800E-1,-1.047463268E-1,1.873462796E-1,9.736021042E0
3.645845370E-1,-6.165069342E-2,1.777694821E-1,9.736021042E0
3.665821930E-1,-4.189853091E-3,1.203086376E-1,9.712079048E0
3.685798490E-1,4.369417951E-2,7.242459804E-2,9.649829865E0
3.705775050E-1,5.805939063E-2,5.805939063E-2,9.587580681E0
3.725751620E-1,6.284779310E-2,2.932897024E-2,9.625887871E0
3.745728180E-1,3.411737457E-2,1.496376097E-2,9.601945877E0
3.765704740E-1,2.932897024E-2,7.242459804E-2,9.578003883E0
3.785680780E-1,1.496376097E-2,1.011550203E-1,9.544485092E0
3.805655260E-1,-3.292027488E-2,1.059434265E-1,9.520543098E0
3.825628700E-1,-4.249707982E-2,2.017114908E-1,9.534908295E0
3.845602140E-1,-8.978256024E-3,2.974795699E-1,9.510966301E0
3.865575570E-1,-7.601590455E-2,2.831143439E-1,9.491812706E0
3.885549010E-1,-1.191115379E-1,3.357867897E-1,9.587580681E0
3.905522450E-1,-1.382651478E-1,3.693056107E-1,9.664195061E0
3.925495890E-1,-1.574187577E-1,3.597288132E-1,9.678560257E0
3.945469320E-1,-1.861491799E-1,3.980360329E-1,9.664195061E0
3.965442760E-1,-2.244564146E-1,3.980360329E-1,9.707290649E0
3.985416200E-1,-3.106476665E-1,3.405751884E-1,9.764751434E0
4.005389640E-1,-3.585317135E-1,3.309983909E-1,9.788693428E0
4.025363070E-1,-3.585317135E-1,3.118447661E-1,9.769539833E0
4.045337030E-1,-4.016273320E-1,2.400187254E-1,9.836577415E0
4.065311510E-1,-3.872621357E-1,2.017114908E-1,9.951498985E0
4.085286510E-1,-3.298012912E-1,2.687491477E-1,1.005205631E1
4.105262030E-1,-1.765723825E-1,2.974795699E-1,9.961075783E0
4.125238070E-1,-8.080431074E-2,3.262099922E-1,9.937133789E0
4.145214640E-1,2.932897024E-2,4.171896577E-1,1.000895977E1
4.165191720E-1,1.250970364E-1,5.656301379E-1,1.000895977E1
4.185169320E-1,1.490390599E-1,6.374561787E-1,9.970652580E0
4.205146930E-1,1.634042710E-1,6.278793812E-1,9.946710587E0
4.225124530E-1,1.250970364E-1,5.895721912E-1,9.985017776E0
4.245102140E-1,7.721300423E-2,5.321113467E-1,1.006642151E1
4.265079740E-1,6.763619930E-2,5.129576921E-1,1.009036350E1
4.285057350E-1,1.017535757E-2,3.549404144E-1,1.003769016E1
4.305034950E-1,-9.516951442E-2,1.969230920E-1,1.015261269E1
4.325012550E-1,-7.601590455E-2,1.921346933E-1,1.027232265E1
4.344990160E-1,-3.292027488E-2,1.634042710E-1,1.028668785E1
4.364965680E-1,-4.189853091E-3,2.256535143E-1,1.027232265E1
4.384941200E-1,9.636662155E-2,2.735375464E-1,1.009515190E1
4.404916720E-1,1.059434265E-1,2.064998895E-1,9.937133789E0
4.424892240E-1,6.763619930E-2,4.848258570E-2,9.716867447E0
4.444867760E-1,5.985504249E-4,-5.207388848E-2,9.692925453E0
4.464843280E-1,1.250970364E-1,6.284779310E-2,9.827000618E0
4.484818800E-1,1.921346933E-1,1.011550203E-1,9.793481827E0
4.504794320E-1,2.543839216E-1,3.890577704E-2,9.487024307E0
4.524769850E-1,2.304419130E-1,-1.669955701E-1,9.242815971E0
4.544745370E-1,1.681926697E-1,-2.723404467E-1,9.324218750E0
4.564720890E-1,2.352303118E-1,-1.286883354E-1,9.582792282E0
4.584696410E-1,1.442506462E-1,-2.914940715E-1,9.419986725E0
4.604671930E-1,3.890577704E-2,-4.447229803E-1,9.496601105E0
4.624647450E-1,4.369417951E-2,-2.436100245E-1,9.774328232E0
4.644623490E-1,-5.207388848E-2,-2.531868219E-1,9.822212219E0
4.664600050E-1,-1.957259923E-1,-3.585317135E-1,9.764751434E0
4.684577140E-1,-1.334767491E-1,-1.957259923E-1,9.798270226E0
4.704554740E-1,-1.047463268E-1,3.411737457E-2,9.827000618E0
4.724532870E-1,3.411737457E-2,7.721300423E-2,9.573215485E0
4.744510990E-1,-9.038111567E-2,-1.526303589E-1,9.305065155E0
4.764489120E-1,-1.143231317E-1,-3.292027488E-2,9.601945877E0
4.784467240E-1,-2.334346622E-2,2.352303118E-1,9.846154213E0
4.804445370E-1,-4.189853091E-3,2.831143439E-1,9.731232643E0
4.824423490E-1,-1.382651478E-1,1.155202314E-1,9.563638687E0
4.844401620E-1,-2.388216257E-1,1.298854351E-1,9.755174637E0
4.864379740E-1,-3.106476665E-1,2.256535143E-1,9.994594574E0
4.884357870E-1,-3.298012912E-1,2.926911712E-1,1.007599831E1
4.904335990E-1,-3.202244639E-1,2.112883031E-1,1.010951710E1
4.924314120E-1,-2.531868219E-1,2.064998895E-1,9.956287384E0
4.944292240E-1,-2.962824702E-1,-9.038111567E-2,9.870096207E0
4.964270370E-1,-3.489548862E-1,-9.038111567E-2,1.029626465E1
4.984245890E-1,-2.100912035E-1,2.400187254E-1,1.047822380E1
5.004220890E-1,-1.047463268E-1,2.112883031E-1,9.985017776E0
5.024195890E-1,-1.238999367E-1,-9.038111567E-2,9.774328232E0
5.044170890E-1,-2.148796022E-1,-8.080431074E-2,1.008557510E1
5.064145890E-1,-1.478419602E-1,5.985504249E-4,1.006642151E1
5.084120890E-1,-9.516951442E-2,-6.165069342E-2,9.860519409E0
5.104095890E-1,-6.165069342E-2,-3.770867735E-2,9.855731010E0
5.124070890E-1,-5.686229095E-2,6.284779310E-2,9.879673004E0
5.144045890E-1,-8.978256024E-3,4.848258570E-2,9.630676270E0
5.164020890E-1,-1.855506375E-2,-1.813607812E-1,9.587580681E0
5.183995890E-1,-8.559270948E-2,-1.478419602E-1,9.635464668E0
5.203970890E-1,5.985504249E-4,-1.143231317E-1,9.606734276E0
5.223946410E-1,2.454056777E-2,-2.053027898E-1,9.554061890E0
5.243922450E-1,8.678980917E-2,-1.382651478E-1,9.755174637E0
5.263899010E-1,9.636662155E-2,-1.286883354E-1,9.582792282E0
5.283876100E-1,1.011550203E-1,-1.957259923E-1,9.434351921E0
5.303853700E-1,9.636662155E-2,-1.478419602E-1,9.487024307E0
5.323831300E-1,3.411737457E-2,-1.957259923E-1,9.501389503E0
5.343808910E-1,1.017535757E-2,-3.633201122E-1,9.381679535E0
5.363786510E-1,-7.122749835E-2,-4.112041295E-1,9.683348656E0
5.383764120E-1,1.975216344E-2,-1.143231317E-1,9.860519409E0
5.403741720E-1,9.157821536E-2,-3.770867735E-2,9.702502251E0
5.423719320E-1,1.011550203E-1,-7.601590455E-2,9.539696693E0
5.443696930E-1,8.200141042E-2,5.805939063E-2,9.673771858E0
5.463674530E-1,1.586158574E-1,1.873462796E-1,9.697713852E0
5.483652140E-1,1.394622475E-1,1.011550203E-1,9.601945877E0
5.503629740E-1,1.059434265E-1,3.890577704E-2,9.601945877E0
5.523607350E-1,8.200141042E-2,5.327098817E-2,9.850942612E0
5.543584950E-1,1.059434265E-1,-4.249707982E-2,9.783905029E0
5.563562550E-1,1.250970364E-1,3.166331649E-1,9.975440979E0
5.583540160E-1,1.203086376E-1,3.405751884E-1,9.846154213E0
5.603517760E-1,-3.292027488E-2,-5.207388848E-2,9.712079048E0
5.623494850E-1,-2.334346622E-2,1.203086376E-1,9.937133789E0
5.643470890E-1,1.107318252E-1,2.352303118E-1,9.917980194E0
5.663446410E-1,1.155202314E-1,1.729810685E-1,9.917980194E0
5.683421930E-1,1.155202314E-1,1.873462796E-1,1.003290176E1
5.703397450E-1,4.848258570E-2,2.017114908E-1,9.980229378E0
5.723372970E-1,-4.728548229E-2,1.586158574E-1,9.788693428E0
5.743348490E-1,-3.770867735E-2,8.678980917E-2,9.932345390E0
5.763324010E-1,-4.249707982E-2,2.112883031E-1,9.932345390E0
5.783299530E-1,-1.191115379E-1,-1.855506375E-2,9.774328232E0
5.803275050E-1,-1.526303589E-1,-9.995792061E-2,9.678560257E0
5.823250570E-1,-1.047463268E-1,7.721300423E-2,9.803058624E0
5.843226100E-1,-6.165069342E-2,7.721300423E-2,9.573215485E0
5.863201620E-1,5.985504249E-4,-1.478419602E-1,9.434351921E0
5.883177140E-1,1.017535757E-2,-1.717839688E-1,9.530119896E0
5.903152660E-1,-8.978256024E-3,-9.038111567E-2,9.487024307E0
5.923128180E-1,-4.728548229E-2,-1.095347255E-1,9.458293915E0
5.943103700E-1,-2.005143911E-1,-1.765723825E-1,9.558850288E0
5.963079220E-1,-3.058592677E-1,2.932897024E-2,9.396044731E0
5.983055260E-1,-2.675520480E-1,3.411737457E-2,9.285911560E0
6.003031820E-1,-2.388216257E-1,-1.909375787E-1,9.261969566E0
6.023008910E-1,-2.005143911E-1,-1.861491799E-1,9.439140320E0
6.042986510E-1,-8.559270948E-2,-1.191115379E-1,9.496601105E0
6.062964640E-1,-3.770867735E-2,-2.962824702E-1,9.309853554E0
6.082943280E-1,2.454056777E-2,-4.159925580E-1,9.424775124E0
6.102922450E-1,1.394622475E-1,-1.382651478E-1,9.587580681E0
6.122902140E-1,3.262099922E-1,-6.643909961E-2,9.233239174E0
6.142882350E-1,2.926911712E-1,-2.244564146E-1,9.008183479E0
6.162862550E-1,2.687491477E-1,-3.250128925E-1,9.175778389E0
6.182842760E-1,2.974795699E-1,-2.100912035E-1,9.295488358E0
6.202822970E-1,3.501519859E-1,-1.813607812E-1,9.233239174E0
6.222800050E-1,4.459200799E-1,-1.622071713E-1,9.156624794E0
6.242774010E-1,3.693056107E-1,-1.095347255E-1,9.400833130E0
6.262747970E-1,3.357867897E-1,-1.376665942E-2,9.510966301E0
6.282721930E-1,3.357867897E-1,-8.080431074E-2,9.391256332E0
6.302695890E-1,3.166331649E-1,-1.047463268E-1,9.506177902E0
6.322669850E-1,3.309983909E-1,-1.574187577E-1,9.515754700E0
6.342643800E-1,2.783259451E-1,-3.106476665E-1,9.549273491E0
6.362617760E-1,2.831143439E-1,-2.100912035E-1,9.721655846E0
6.382591720E-1,3.549404144E-1,-1.191115379E-1,9.625887871E0
6.402565680E-1,3.693056107E-1,-1.574187577E-1,9.458293915E0
6.422539640E-1,3.501519859E-1,3.890577704E-2,9.592369080E0
6.442513600E-1,2.591723204E-1,-1.047463268E-1,9.482235909E0
6.462488070E-1,8.200141042E-2,-3.872621357E-1,9.415198326E0
6.482462550E-1,1.634042710E-1,-1.574187577E-1,9.563638687E0
6.502437550E-1,2.879027426E-1,1.729810685E-1,9.558850288E0
6.522413070E-1,2.831143439E-1,2.256535143E-1,9.180566788E0
6.542389120E-1,2.208651006E-1,9.157821536E-2,9.060855865E0
6.562365680E-1,2.256535143E-1,5.327098817E-2,9.170989990E0
6.582342760E-1,2.064998895E-1,1.203086376E-1,9.372102737E0
6.602320370E-1,1.586158574E-1,1.975216344E-2,9.257181168E0
6.622298490E-1,1.298854351E-1,-2.531868219E-1,9.281123161E0
6.642276620E-1,7.721300423E-2,-6.643909961E-2,9.716867447E0
6.662254740E-1,1.155202314E-1,1.777694821E-1,9.798270226E0
6.682232870E-1,1.155202314E-1,2.932897024E-2,9.429563522E0
6.702210990E-1,-2.334346622E-2,-2.813187055E-2,9.501389503E0
6.722189120E-1,-7.601590455E-2,2.454056777E-2,9.443928719E0
6.742167240E-1,-2.053027898E-1,-2.723404467E-1,9.606734276E0
6.762145370E-1,-1.191115379E-1,1.873462796E-1,1.007120991E1
6.782123490E-1,-7.601590455E-2,3.357867897E-1,9.922768593E0
6.802101620E-1,-1.669955701E-1,-9.995792061E-2,9.214085579E0
6.822079740E-1,-3.058592677E-1,-1.286883354E-1,9.783905029E0
6.842057870E-1,-2.436100245E-1,5.985504249E-4,9.994594574E0
6.862035990E-1,-1.622071713E-1,-8.978256024E-3,9.908403397E0
6.882014120E-1,-1.574187577E-1,4.369417951E-2,9.908403397E0
6.901992240E-1,-2.244564146E-1,-5.686229095E-2,9.716867447E0
6.921970370E-1,-2.867056429E-1,-8.978256024E-3,9.659406662E0
6.941948490E-1,-2.531868219E-1,7.721300423E-2,9.573215485E0
6.961926620E-1,-2.196680009E-1,-1.622071713E-1,9.448717117E0
6.981904740E-1,-1.430535465E-1,4.369417951E-2,9.745597839E0
7.001882870E-1,-9.516951442E-2,-7.122749835E-2,9.702502251E0
7.021860990E-1,-5.686229095E-2,-2.483984232E-1,9.759963036E0
7.041839120E-1,4.369417951E-2,-3.770867735E-2,1.002332497E1
7.061817240E-1,1.203086376E-1,-6.165069342E-2,9.774328232E0
7.081795370E-1,1.729810685E-1,-3.872621357E-1,9.429563522E0
7.101773490E-1,2.543839216E-1,-2.053027898E-1,9.879673004E0
7.121751620E-1,3.118447661E-1,-1.334767491E-1,9.812635422E0
7.141729740E-1,3.405751884E-1,-3.154360652E-1,9.563638687E0
7.161707870E-1,3.405751884E-1,-1.813607812E-1,9.707290649E0
7.181685990E-1,4.507084787E-1,-2.627636492E-1,9.386467934E0
7.201664120E-1,4.171896577E-1,-5.548562407E-1,9.424775124E0
7.221642240E-1,4.507084787E-1,-3.058592677E-1,9.855731010E0
7.241618800E-1,4.985924959E-1,-2.962824702E-1,9.683348656E0
7.261594320E-1,4.650736749E-1,-3.824737072E-1,9.673771858E0
7.281567760E-1,5.560533404E-1,-1.813607812E-1,9.621099472E0
7.301541200E-1,4.554968774E-1,-3.345896900E-1,9.616311073E0
7.321514640E-1,3.980360329E-1,-3.489548862E-1,9.606734276E0
7.341488070E-1,2.735375464E-1,-2.962824702E-1,9.812635422E0
7.361462030E-1,1.873462796E-1,-3.010708690E-1,9.831789017E0
7.381436510E-1,2.879027426E-1,-2.813187055E-2,9.740809441E0
7.401411510E-1,2.831143439E-1,-4.728548229E-2,9.357737541E0
7.421387030E-1,2.400187254E-1,-1.143231317E-1,9.443928719E0
7.441363070E-1,2.112883031E-1,2.831143439E-1,9.865307808E0
7.461339640E-1,2.974795699E-1,2.879027426E-1,9.697713852E0
7.481316720E-1,1.825578809E-1,7.242459804E-2,9.683348656E0
7.501293800E-1,1.059434265E-1,7.242459804E-2,1.003290176E1
7.521271410E-1,2.932897024E-2,3.453635871E-1,1.015740108E1
7.541249530E-1,-3.770867735E-2,2.543839216E-1,9.817423820E0
7.561227660E-1,-1.191115379E-1,7.242459804E-2,9.870096207E0
7.581205780E-1,-1.622071713E-1,1.634042710E-1,1.023880386E1
7.601183910E-1,-1.861491799E-1,2.783259451E-1,1.042076302E1
7.621162030E-1,-2.244564146E-1,2.543839216E-1,1.016697788E1
7.641140160E-1,-2.675520480E-1,2.448071241E-1,9.941922188E0
7.661118280E-1,-2.675520480E-1,8.242039084E-1,9.750386238E0
7.681096410E-1,-4.255693555E-1,-1.368884802E0,8.629899979E0
7.701074530E-1,-2.675520480E-1,-6.985083222E-1,1.277186871E1
7.721052660E-1,4.369417951E-2,1.255160213E0,1.023880386E1
7.741030780E-1,-4.249707982E-2,7.380126715E-1,8.629899979E0
7.761008910E-1,-3.345896900E-1,-6.123170853E-1,9.285911560E0
7.780987030E-1,-4.159925580E-1,-2.100912035E-1,1.016697788E1
7.800965160E-1,-2.675520480E-1,6.183025837E-1,9.568427086E0
7.820943280E-1,-1.334767491E-1,-3.770867735E-2,9.099164009E0
7.840921410E-1,-1.095347255E-1,-3.345896900E-1,9.434351921E0
7.860899530E-1,-1.286883354E-1,-2.771288455E-1,9.702502251E0
7.880877660E-1,-1.526303589E-1,-7.272387743E-1,1.047822380E1
7.900855780E-1,-1.574187577E-1,-1.143231317E-1,1.001853657E1
7.920833910E-1,-2.579752207E-1,1.394622475E-1,9.482235909E0
7.940812030E-1,-4.447229803E-1,-2.100912035E-1,8.993818283E0
7.960790160E-1,-3.824737072E-1,-3.106476665E-1,9.668983459E0
7.980768280E-1,-2.531868219E-1,3.411737457E-2,9.266757965E0
8.000746410E-1,-2.531868219E-1,-6.171054840E-1,9.750386238E0
8.020724530E-1,-1.765723825E-1,-9.187749028E-1,1.032020664E1
8.040702660E-1,-5.207388848E-2,-5.404910445E-1,1.055962658E1
8.060680780E-1,3.890577704E-2,-1.669955701E-1,9.817423820E0
8.080658390E-1,-3.292027488E-2,-4.351461530E-1,9.678560257E0
8.100634430E-1,-1.334767491E-1,-4.351461530E-1,9.501389503E0
8.120609950E-1,-1.526303589E-1,-1.855506375E-2,9.439140320E0
8.140585470E-1,-1.286883354E-1,-1.334767491E-1,9.534908295E0
8.160560990E-1,-1.095347255E-1,-2.005143911E-1,9.218873978E0
8.180536510E-1,-4.728548229E-2,-4.255693555E-1,9.616311073E0
8.200512030E-1,1.017535757E-2,-4.782418013E-1,1.021965027E1
8.220487550E-1,8.200141042E-2,-2.436100245E-1,9.477447510E0
8.240463070E-1,5.985504249E-4,-6.362590790E-1,9.185355186E0
8.260439120E-1,5.386953708E-3,-8.038532138E-1,9.702502251E0
8.280415680E-1,5.327098817E-2,-4.064157307E-1,9.554061890E0
8.300392760E-1,1.011550203E-1,-2.388216257E-1,9.113529205E0
8.320370370E-1,-4.249707982E-2,-6.027402878E-1,9.458293915E0
8.340348490E-1,-1.376665942E-2,-3.441664875E-1,9.922768593E0
8.360327140E-1,-1.855506375E-2,-2.436100245E-1,9.142259598E0
8.380306300E-1,-2.005143911E-1,-5.931634903E-1,9.645041466E0
8.400285470E-1,-1.813607812E-1,-1.286883354E-1,9.707290649E0
8.420264640E-1,-2.005143911E-1,-3.681085110E-1,9.745597839E0
8.440243800E-1,-3.393780887E-1,-5.548562407E-1,1.061229897E1
8.460222970E-1,-3.058592677E-1,2.783259451E-1,9.496601105E0
8.480202140E-1,-4.351461530E-1,-4.303577542E-1,9.697713852E0
8.500181300E-1,-4.830302000E-1,-5.261258483E-1,1.027232265E1
8.520160470E-1,-4.351461530E-1,-2.334346622E-2,9.783905029E0
8.540139640E-1,-4.447229803E-1,-2.675520480E-1,1.009515190E1
8.560118800E-1,-5.883750916E-1,-3.010708690E-1,9.391256332E0
8.580097970E-1,-6.266822815E-1,-8.559270948E-2,9.463082314E0
8.600077140E-1,-6.410474777E-1,-3.154360652E-1,9.750386238E0
8.620054740E-1,-5.740098357E-1,-4.926069975E-1,1.016697788E1
8.640032350E-1,-4.399345517E-1,-3.106476665E-1,1.000895977E1
8.660009950E-1,-4.351461530E-1,-1.669955701E-1,9.314641953E0
8.679987550E-1,-4.207809567E-1,-7.224503756E-1,9.750386238E0
8.699965160E-1,-3.633201122E-1,-7.224503756E-1,1.006163311E1
8.719942760E-1,-1.957259923E-1,-4.112041295E-1,9.563638687E0
8.739920370E-1,-1.574187577E-1,-1.478419602E-1,9.908403397E0
8.759897970E-1,-9.038111567E-2,-2.914940715E-1,9.175778389E0
8.779875570E-1,-9.516951442E-2,-3.441664875E-1,9.218873978E0
8.799853180E-1,-1.047463268E-1,-3.202244639E-1,9.309853554E0
8.819830780E-1,-9.516951442E-2,-3.537433147E-1,8.749609947E0
8.839808390E-1,-2.100912035E-1,-9.522937536E-1,9.506177902E0
8.859785990E-1,-6.165069342E-2,-7.463923693E-1,9.147047997E0
8.879763600E-1,-3.292027488E-2,-8.565256596E-1,9.702502251E0
8.899741200E-1,1.634042710E-1,-6.697779298E-1,9.836577415E0
8.919718800E-1,1.777694821E-1,-8.613140583E-1,1.008557510E1
8.939696410E-1,8.678980917E-2,-7.224503756E-1,9.649829865E0
8.959674010E-1,1.107318252E-1,-4.926069975E-1,9.209297180E0
8.979651620E-1,1.298854351E-1,-3.920505345E-1,9.065644264E0
8.999629220E-1,3.890577704E-2,-5.500678420E-1,9.750386238E0
9.019606820E-1,1.298854351E-1,-4.542997777E-1,1.014303589E1
9.039584430E-1,6.763619930E-2,-3.489548862E-1,9.879673004E0
9.059562030E-1,5.327098817E-2,1.586158574E-1,9.170989990E0
9.079539640E-1,-2.813187055E-2,-3.770867735E-2,9.032125473E0
9.099517240E-1,-7.122749835E-2,1.442506462E-1,9.276334763E0
9.119494850E-1,-6.643909961E-2,1.496376097E-2,9.099164009E0
9.139471410E-1,1.496376097E-2,-2.292448133E-1,9.348160744E0
9.159445370E-1,7.242459804E-2,-3.633201122E-1,9.946710587E0
9.179418800E-1,1.155202314E-1,-2.627636492E-1,9.400833130E0
9.199392240E-1,1.538274586E-1,-3.058592677E-1,9.175778389E0
9.219363070E-1,1.729810685E-1,-2.579752207E-1,9.056067467E0
9.239333910E-1,1.873462796E-1,-8.038532138E-1,9.333795547E0
9.259304740E-1,1.490390599E-1,-8.421604633E-1,1.008557510E1
9.279276100E-1,1.250970364E-1,-7.601590455E-2,9.755174637E0
9.299247970E-1,1.394622475E-1,-2.771288455E-1,9.199720383E0
9.319220370E-1,9.157821536E-2,-8.517372608E-1,9.338583946E0
9.339193280E-1,4.848258570E-2,-1.909375787E-1,9.367314339E0
9.359167240E-1,3.411737457E-2,1.346738487E-1,8.649053574E0
9.379142240E-1,-1.855506375E-2,-7.128735781E-1,8.969876289E0
9.399118280E-1,1.975216344E-2,-4.495113790E-1,9.487024307E0
9.419095370E-1,-4.728548229E-2,-4.249707982E-2,9.721655846E0
9.439073490E-1,-1.143231317E-1,-3.441664875E-1,1.003769016E1
9.459052140E-1,-3.058592677E-1,-5.117605925E-1,1.003769016E1
9.479031300E-1,-4.112041295E-1,-2.244564146E-1,9.783905029E0
9.499010990E-1,-5.069721937E-1,1.017535757E-2,9.774328232E0
9.518991200E-1,-5.021837950E-1,-4.189853091E-3,9.683348656E0
9.538971930E-1,-5.740098357E-1,-5.207388848E-2,9.726444244E0
9.558953180E-1,-5.835866928E-1,1.155202314E-1,9.501389503E0
9.578934430E-1,-6.554127336E-1,1.250970364E-1,9.487024307E0
9.598915680E-1,-5.548562407E-1,3.597288132E-1,9.348160744E0
9.618895890E-1,-5.117605925E-1,1.921346933E-1,9.290699959E0
9.638871930E-1,-4.590881765E-1,1.442506462E-1,9.779116631E0
9.658847970E-1,-3.920505345E-1,3.836708367E-1,9.827000618E0
9.678824010E-1,-2.867056429E-1,7.721300423E-2,9.932345390E0
9.698800050E-1,-2.579752207E-1,5.327098817E-2,1.008557510E1
9.718776100E-1,-1.669955701E-1,1.155202314E-1,9.999382973E0
9.738752140E-1,-2.196680009E-1,5.752069354E-1,9.803058624E0
9.758728180E-1,-2.148796022E-1,3.501519859E-1,9.750386238E0
9.778704220E-1,-1.717839688E-1,2.017114908E-1,9.817423820E0
9.798680260E-1,-2.100912035E-1,2.926911712E-1,9.688137054E0
9.818656300E-1,-8.559270948E-2,3.932476342E-1,9.419986725E0
9.838632350E-1,8.200141042E-2,3.166331649E-1,9.376891136E0
9.858608390E-1,1.777694821E-1,2.591723204E-1,9.587580681E0
9.878584430E-1,3.214215636E-1,1.250970364E-1,9.803058624E0
9.898560470E-1,4.219780564E-1,-1.095347255E-1,9.841365814E0
9.918536510E-1,5.560533404E-1,1.975216344E-2,1.020528507E1
9.938512550E-1,6.422445774E-1,4.848258570E-2,1.017655468E1
9.958488600E-1,5.943605900E-1,1.298854351E-1,9.870096207E0
9.978464640E-1,5.321113467E-1,1.346738487E-1,9.266757965E0
9.998440680E-1,4.746504724E-1,1.298854351E-1,9.060855865E0
1.001841672E0,5.225345492E-1,2.064998895E-1,9.362525940E0
1.003839276E0,5.177460909E-1,9.636662155E-2,9.539696693E0
1.005836880E0,5.033808947E-1,-4.249707982E-2,9.798270226E0
1.007834485E0,4.554968774E-1,-6.165069342E-2,9.855731010E0
1.009832089E0,3.836708367E-1,-9.995792061E-2,1.014782429E1
1.011829693E0,4.315548539E-1,4.369417951E-2,9.736021042E0
1.013827297E0,3.836708367E-1,1.394622475E-1,9.673771858E0
1.015824901E0,2.735375464E-1,2.352303118E-1,9.740809441E0
1.017822505E0,2.112883031E-1,3.501519859E-1,9.506177902E0
1.019820110E0,1.394622475E-1,2.352303118E-1,9.510966301E0
1.021817714E0,3.411737457E-2,3.070563674E-1,9.798270226E0
1.023815318E0,-4.249707982E-2,4.124012291E-1,9.664195061E0
1.025812922E0,-1.143231317E-1,3.357867897E-1,1.013824749E1
1.027810526E0,-1.286883354E-1,4.028244317E-1,1.031541824E1
1.029808130E0,-2.627636492E-1,4.028244317E-1,1.000417137E1
1.031805787E0,-4.495113790E-1,4.890156984E-1,9.922768593E0
1.033803443E0,-4.686649740E-1,6.326677799E-1,9.750386238E0
1.035801099E0,-5.309142470E-1,5.895721912E-1,9.587580681E0
1.037798755E0,-5.548562407E-1,4.219780564E-1,9.870096207E0
1.039796412E0,-4.638765752E-1,4.124012291E-1,1.050216579E1
1.041794068E0,-4.590881765E-1,6.087257862E-1,1.061229897E1
1.043791724E0,-5.644330382E-1,6.183025837E-1,9.917980194E0
1.045789380E0,-6.171054840E-1,3.788824081E-1,1.009515190E1
1.047787037E0,-4.734533727E-1,4.938040972E-1,1.061229897E1
1.049784693E0,-4.495113790E-1,5.464765429E-1,1.079425812E1
1.051782297E0,-3.010708690E-1,4.028244317E-1,1.080862331E1
1.053779641E0,-2.531868219E-1,3.501519859E-1,1.077510452E1
1.055776985E0,-1.526303589E-1,6.135141850E-1,9.889249802E0
1.057774328E0,-4.189853091E-3,4.028244317E-1,9.831789017E0
1.059771672E0,1.490390599E-1,2.543839216E-1,1.006163311E1
1.061769016E0,2.735375464E-1,1.729810685E-1,1.034414864E1
1.063766360E0,4.076128304E-1,1.586158574E-1,1.029626465E1
1.065763703E0,4.411316514E-1,3.836708367E-1,1.034893703E1
1.067761099E0,4.554968774E-1,3.980360329E-1,1.015740108E1
1.069758547E0,4.411316514E-1,5.081692934E-1,1.013824749E1
1.071756047E0,3.453635871E-1,4.459200799E-1,1.015261269E1
1.073753599E0,2.256535143E-1,4.219780564E-1,9.894038200E0
1.075751203E0,1.490390599E-1,3.070563674E-1,1.011909389E1
1.077748807E0,9.636662155E-2,2.495955229E-1,9.941922188E0
1.079746412E0,8.678980917E-2,2.974795699E-1,9.951498985E0
1.081744016E0,1.298854351E-1,3.740940094E-1,9.850942612E0
1.083741620E0,1.777694821E-1,2.352303118E-1,9.539696693E0
1.085739224E0,2.160767019E-1,6.763619930E-2,9.601945877E0
1.087736828E0,2.112883031E-1,-9.516951442E-2,9.621099472E0
1.089734432E0,2.687491477E-1,-1.143231317E-1,9.616311073E0
1.091732037E0,2.783259451E-1,-1.717839688E-1,9.664195061E0
1.093729641E0,3.645172119E-1,-2.436100245E-1,9.707290649E0
1.095727245E0,3.788824081E-1,-3.202244639E-1,9.783905029E0
1.097724849E0,3.309983909E-1,-3.585317135E-1,1.006642151E1
1.099722453E0,3.118447661E-1,-2.723404467E-1,1.034414864E1
1.101720057E0,2.687491477E-1,1.496376097E-2,9.673771858E0
1.103717662E0,6.763619930E-2,9.157821536E-2,9.099164009E0
1.105715266E0,-2.813187055E-2,1.969230920E-1,9.242815971E0
1.107712870E0,-9.516951442E-2,2.783259451E-1,9.424775124E0
1.109710474E0,-2.053027898E-1,1.298854351E-1,9.697713852E0
1.111708078E0,-2.388216257E-1,2.256535143E-1,1.000895977E1
1.113705682E0,-2.531868219E-1,1.059434265E-1,1.035372543E1
1.115703287E0,-3.633201122E-1,3.411737457E-2,1.025316906E1
1.117700891E0,-3.776853085E-1,1.586158574E-1,1.005205631E1
1.119698495E0,-5.309142470E-1,2.735375464E-1,9.649829865E0
1.121695891E0,-6.602011323E-1,3.405751884E-1,9.376891136E0
1.123693287E0,-6.266822815E-1,2.495955229E-1,9.525331497E0
1.125690682E0,-6.745663285E-1,3.166331649E-1,9.668983459E0
1.127688078E0,-6.602011323E-1,4.315548539E-1,9.506177902E0
1.129685474E0,-7.080851793E-1,2.639607489E-1,9.836577415E0
1.131682870E0,-6.602011323E-1,3.597288132E-1,1.000417137E1
1.133680266E0,-6.362590790E-1,2.495955229E-1,9.745597839E0
1.135677662E0,-6.218938828E-1,1.394622475E-1,9.894038200E0
1.137675057E0,-6.171054840E-1,2.017114908E-1,9.965864182E0
1.139672453E0,-5.404910445E-1,2.304419130E-1,9.865307808E0
1.141669849E0,-5.787982345E-1,2.879027426E-1,9.884461403E0
1.143667297E0,-5.500678420E-1,3.645172119E-1,9.683348656E0
1.145664745E0,-4.782418013E-1,3.357867897E-1,9.716867447E0
1.147662193E0,-5.500678420E-1,3.932476342E-1,9.563638687E0
1.149659641E0,-5.213374496E-1,3.597288132E-1,9.654618263E0
1.151657141E0,-4.734533727E-1,2.735375464E-1,9.764751434E0
1.153654693E0,-4.495113790E-1,1.825578809E-1,9.807847023E0
1.155652297E0,-3.824737072E-1,1.442506462E-1,9.913191795E0
1.157649901E0,-3.106476665E-1,-7.122749835E-2,9.850942612E0
1.159647505E0,-2.388216257E-1,-1.813607812E-1,9.812635422E0
1.161645110E0,-7.122749835E-2,-3.393780887E-1,9.463082314E0
1.163642714E0,1.203086376E-1,-6.171054840E-1,8.883685112E0
1.165640318E0,2.783259451E-1,-7.272387743E-1,9.247604370E0
1.167637870E0,4.315548539E-1,-8.325836658E-1,9.458293915E0
1.169635214E0,5.512649417E-1,-9.953893423E-1,9.510966301E0
1.171632557E0,5.225345492E-1,-1.038484931E0,9.635464668E0
1.173629901E0,5.464765429E-1,-9.858125448E-1,9.894038200E0
1.175627245E0,5.081692934E-1,-8.038532138E-1,9.922768593E0
1.177624589E0,4.794389009E-1,-5.979518890E-1,9.726444244E0
1.179621985E0,4.267664552E-1,-4.447229803E-1,9.554061890E0
1.181619432E0,4.171896577E-1,-2.579752207E-1,9.592369080E0
1.183616932E0,3.788824081E-1,-1.669955701E-1,9.640253067E0
1.185614485E0,3.357867897E-1,-8.978256024E-3,9.779116631E0
1.187612089E0,2.543839216E-1,2.017114908E-1,9.941922188E0
1.189609745E0,1.777694821E-1,3.022679687E-1,9.640253067E0
1.191607453E0,1.394622475E-1,3.405751884E-1,9.640253067E0
1.193605162E0,8.678980917E-2,4.938040972E-1,9.846154213E0
1.195602870E0,1.490390599E-1,4.985924959E-1,9.506177902E0
1.197600578E0,1.975216344E-2,4.890156984E-1,8.965087891E0
1.199598287E0,1.634042710E-1,5.656301379E-1,9.123106003E0
1.201595995E0,1.346738487E-1,4.363432527E-1,1.011430550E1
1.203593599E0,1.442506462E-1,1.490390599E-1,1.047343540E1
1.205590787E0,1.155202314E-1,1.681926697E-1,1.042076302E1
1.207587974E0,2.932897024E-2,1.490390599E-1,1.011909389E1
1.209585162E0,5.386953708E-3,3.118447661E-1,9.941922188E0
1.211582349E0,-4.249707982E-2,4.315548539E-1,9.554061890E0
1.213579537E0,-1.669955701E-1,4.459200799E-1,9.127894402E0
1.215576724E0,-2.436100245E-1,3.788824081E-1,9.266757965E0
1.217573912E0,-2.244564146E-1,-7.601590455E-2,1.012388229E1
1.219571099E0,-2.483984232E-1,-4.189853091E-3,1.045907021E1
1.221568339E0,-3.441664875E-1,3.022679687E-1,9.745597839E0
1.223565630E0,-3.633201122E-1,1.825578809E-1,9.113529205E0
1.225562974E0,-3.250128925E-1,4.369417951E-2,9.678560257E0
1.227560370E0,-2.483984232E-1,1.107318252E-1,9.965864182E0
1.229557766E0,-2.914940715E-1,5.985504249E-4,1.009036350E1
1.231555162E0,-2.436100245E-1,7.721300423E-2,1.001853657E1
1.233552610E0,-2.340332121E-1,7.721300423E-2,1.003290176E1
1.235550110E0,-9.038111567E-2,5.386953708E-3,1.010472870E1
1.237547662E0,-1.765723825E-1,1.490390599E-1,9.798270226E0
1.239545214E0,-1.861491799E-1,2.687491477E-1,8.926780701E0
1.241542766E0,-1.717839688E-1,3.022679687E-1,8.634688377E0
1.243540318E0,-2.813187055E-2,2.256535143E-1,9.075222015E0
1.245537870E0,6.763619930E-2,-1.574187577E-1,9.482235909E0
1.247535422E0,1.538274586E-1,-2.340332121E-1,1.004247856E1
1.249532974E0,2.879027426E-1,-1.669955701E-1,9.822212219E0
1.251530526E0,2.974795699E-1,-2.244564146E-1,1.023401546E1
1.253528078E0,2.495955229E-1,-3.633201122E-1,1.032978344E1
1.255525630E0,1.777694821E-1,-2.005143911E-1,1.024359226E1
1.257523182E0,1.634042710E-1,-1.376665942E-2,9.621099472E0
1.259520735E0,1.250970364E-1,7.242459804E-2,9.314641953E0
1.261518287E0,1.107318252E-1,4.369417951E-2,9.281123161E0
1.263515839E0,2.064998895E-1,1.011550203E-1,9.491812706E0
1.265513391E0,1.873462796E-1,1.298854351E-1,9.980229378E0
1.267510995E0,2.783259451E-1,1.250970364E-1,1.006642151E1
1.269508651E0,3.740940094E-1,3.411737457E-2,9.917980194E0
1.271506360E0,3.836708367E-1,2.400187254E-1,9.573215485E0
1.273504120E0,3.980360329E-1,1.921346933E-1,9.089587212E0
1.275501932E0,4.124012291E-1,1.011550203E-1,9.099164009E0
1.277499745E0,3.453635871E-1,3.890577704E-2,9.649829865E0
1.279497557E0,4.746504724E-1,-2.483984232E-1,1.048780060E1
1.281495370E0,5.416881442E-1,-1.143231317E-1,1.007599831E1
1.283493182E0,6.374561787E-1,-1.526303589E-1,9.582792282E0
1.285490995E0,6.757634282E-1,-1.622071713E-1,9.831789017E0
1.287488807E0,6.374561787E-1,-1.191115379E-1,9.894038200E0
1.289486307E0,6.470330358E-1,-2.388216257E-1,1.020049667E1
1.291483807E0,7.140706778E-1,1.777694821E-1,9.396044731E0
1.293481203E0,9.008184075E-1,1.298854351E-1,9.065644264E0
1.295478599E0,7.571662664E-1,-2.813187055E-2,9.151836395E0
1.297475995E0,8.050503135E-1,-8.559270948E-2,1.009515190E1
1.299473391E0,8.481459618E-1,1.011550203E-1,1.022922707E1
1.301470787E0,7.619546652E-1,1.921346933E-1,9.740809441E0
1.303468182E0,8.289923668E-1,4.369417951E-2,9.616311073E0
1.305465578E0,7.284358740E-1,8.200141042E-2,9.779116631E0
1.307462974E0,6.805518270E-1,3.262099922E-1,9.214085579E0
1.309460370E0,6.183025837E-1,1.873462796E-1,9.712079048E0
1.311457766E0,6.422445774E-1,1.155202314E-1,1.020528507E1
1.313455162E0,6.374561787E-1,1.017535757E-2,1.045907021E1
1.315452557E0,5.321113467E-1,1.969230920E-1,1.015261269E1
1.317449953E0,4.459200799E-1,4.554968774E-1,9.400833130E0
1.319447401E0,2.926911712E-1,5.799953341E-1,9.281123161E0
1.321444901E0,2.448071241E-1,5.943605900E-1,9.865307808E0
1.323442453E0,2.783259451E-1,6.422445774E-1,9.917980194E0
1.325440057E0,2.495955229E-1,5.512649417E-1,9.999382973E0
1.327437714E0,1.969230920E-1,6.901286244E-1,9.582792282E0
1.329435422E0,2.448071241E-1,5.943605900E-1,9.587580681E0
1.331433130E0,1.921346933E-1,4.985924959E-1,1.001853657E1
1.333430839E0,1.681926697E-1,7.284358740E-1,1.021007347E1
1.335428547E0,6.284779310E-2,1.010951638E0,9.022548676E0
1.337426255E0,5.805939063E-2,5.321113467E-1,8.874108315E0
1.339423964E0,1.634042710E-1,6.183025837E-1,9.429563522E0
1.341421672E0,2.974795699E-1,4.459200799E-1,9.716867447E0
1.343419380E0,2.687491477E-1,2.454056777E-2,1.008557510E1
1.345417089E0,3.884592354E-1,1.490390599E-1,1.021007347E1
1.347414797E0,4.746504724E-1,-4.249707982E-2,1.006642151E1
1.349412505E0,5.081692934E-1,-5.207388848E-2,9.668983459E0
1.351410214E0,5.033808947E-1,2.112883031E-1,9.276334763E0
1.353407922E0,4.794389009E-1,7.242459804E-2,9.329007149E0
1.355405630E0,4.554968774E-1,-2.819172442E-1,1.010472870E1
1.357403339E0,5.895721912E-1,-1.813607812E-1,1.039203262E1
1.359400943E0,5.129576921E-1,3.411737457E-2,9.903614998E0
1.361398287E0,4.554968774E-1,3.070563674E-1,9.156624794E0
1.363395630E0,4.794389009E-1,2.974795699E-1,9.257181168E0
1.365392974E0,3.836708367E-1,6.763619930E-2,9.707290649E0
1.367390318E0,4.650736749E-1,8.678980917E-2,1.020049667E1
1.369387662E0,4.890156984E-1,2.495955229E-1,1.017655468E1
1.371385057E0,4.459200799E-1,3.070563674E-1,1.007120991E1
1.373382505E0,4.076128304E-1,3.645172119E-1,9.376891136E0
1.375380005E0,3.693056107E-1,3.501519859E-1,9.352949142E0
1.377377557E0,3.549404144E-1,4.363432527E-1,9.917980194E0
1.379375162E0,2.926911712E-1,4.938040972E-1,1.009515190E1
1.381372818E0,5.368997455E-1,2.687491477E-1,1.040160942E1
1.383370526E0,4.794389009E-1,4.650736749E-1,1.003769016E1
1.385368287E0,4.746504724E-1,5.512649417E-1,9.170989990E0
1.387366047E0,4.267664552E-1,3.070563674E-1,9.654618263E0
1.389363807E0,2.448071241E-1,5.752069354E-1,9.276334763E0
1.391361568E0,1.873462796E-1,6.757634282E-1,8.735244751E0
1.393359328E0,3.166331649E-1,2.304419130E-1,9.659406662E0
1.395357089E0,2.256535143E-1,1.059434265E-1,1.012388229E1
1.397354745E0,6.763619930E-2,2.543839216E-1,1.018613148E1
1.399352245E0,2.448071241E-1,2.454056777E-2,1.021965027E1
1.401349745E0,2.064998895E-1,1.155202314E-1,9.549273491E0
1.403347245E0,8.678980917E-2,1.394622475E-1,9.218873978E0
1.405344589E0,2.932897024E-2,-5.207388848E-2,9.582792282E0
1.407341932E0,3.890577704E-2,-2.005143911E-1,9.611522675E0
1.409339276E0,5.985504249E-4,-2.867056429E-1,9.611522675E0
1.411336620E0,-6.165069342E-2,-4.112041295E-1,1.007120991E1
1.413333964E0,-6.165069342E-2,-2.100912035E-1,1.007599831E1
1.415331307E0,-2.813187055E-2,-1.382651478E-1,9.798270226E0
1.417328703E0,-3.770867735E-2,-2.436100245E-1,9.827000618E0
1.419326151E0,-4.249707982E-2,-3.585317135E-1,1.028668785E1
1.421323651E0,1.496376097E-2,-1.909375787E-1,1.010951710E1
1.423321203E0,-9.516951442E-2,4.171896577E-1,9.352949142E0
1.425318807E0,-1.669955701E-1,6.326677799E-1,8.668207169E0
1.427316464E0,-1.143231317E-1,2.974795699E-1,8.955511093E0
1.429314172E0,-1.861491799E-1,5.386953708E-3,1.009994030E1
1.431311932E0,-5.207388848E-2,2.017114908E-1,1.034414864E1
1.433309745E0,-1.334767491E-1,2.352303118E-1,1.001374817E1
1.435307610E0,-1.095347255E-1,3.405751884E-1,9.477447510E0
1.437305526E0,-2.334346622E-2,1.729810685E-1,9.759963036E0
1.439303495E0,-7.122749835E-2,1.496376097E-2,1.024359226E1
1.441301516E0,-1.957259923E-1,1.394622475E-1,9.755174637E0
1.443299589E0,-1.143231317E-1,2.064998895E-1,9.611522675E0
1.445297662E0,-6.643909961E-2,1.155202314E-1,9.592369080E0
1.447295735E0,-4.249707982E-2,-7.122749835E-2,9.726444244E0
1.449293807E0,-3.292027488E-2,-2.053027898E-1,1.011430550E1
1.451291672E0,-1.143231317E-1,-1.574187577E-1,9.927556992E0
1.453289380E0,-9.516951442E-2,-2.483984232E-1,9.807847023E0
1.455287037E0,-1.909375787E-1,-1.669955701E-1,9.611522675E0
1.457284693E0,-1.861491799E-1,-1.861491799E-1,9.506177902E0
1.459282349E0,-1.526303589E-1,-1.574187577E-1,9.228450775E0
1.461280005E0,-9.038111567E-2,-2.819172442E-1,9.458293915E0
1.463277662E0,-4.189853091E-3,-3.154360652E-1,9.625887871E0
1.465275318E0,3.411737457E-2,-2.914940715E-1,9.668983459E0
1.467272974E0,2.932897024E-2,-3.872621357E-1,9.702502251E0
1.469270630E0,1.394622475E-1,-4.878185987E-1,9.716867447E0
1.471268287E0,2.017114908E-1,-5.692214370E-1,9.812635422E0
1.473265943E0,2.304419130E-1,-6.506243348E-1,9.827000618E0
1.475263599E0,1.586158574E-1,-6.602011323E-1,9.549273491E0
1.477261255E0,1.729810685E-1,-5.644330382E-1,9.625887871E0
1.479258860E0,8.200141042E-2,-4.830302000E-1,9.649829865E0
1.481256464E0,1.969230920E-1,-5.548562407E-1,9.879673004E0
1.483254068E0,2.112883031E-1,-4.878185987E-1,9.932345390E0
1.485251672E0,2.400187254E-1,-5.261258483E-1,9.831789017E0
1.487249276E0,1.490390599E-1,-5.261258483E-1,9.817423820E0
1.489246880E0,1.107318252E-1,-5.117605925E-1,9.702502251E0
1.491244485E0,3.411737457E-2,5.386953708E-3,9.032125473E0
1.493241932E0,1.298854351E-1,-6.643909961E-2,9.501389503E0
1.495239380E0,1.203086376E-1,-3.585317135E-1,9.745597839E0
1.497236828E0,1.634042710E-1,-5.165489912E-1,1.002811337E1
1.499234276E0,1.250970364E-1,-3.585317135E-1,1.048301220E1
1.501231724E0,1.394622475E-1,-4.728548229E-2,9.989806175E0
1.503229172E0,-4.189853091E-3,9.636662155E-2,9.060855865E0
1.505226620E0,-1.334767491E-1,3.411737457E-2,9.151836395E0
1.507224068E0,-6.165069342E-2,-5.686229095E-2,1.025316906E1
1.509221516E0,-3.770867735E-2,-1.717839688E-1,1.032978344E1
1.511218964E0,-1.095347255E-1,7.242459804E-2,9.716867447E0
1.513216412E0,-1.047463268E-1,3.597288132E-1,9.343372345E0
1.515213912E0,-7.122749835E-2,4.363432527E-1,9.209297180E0
1.517211464E0,-3.770867735E-2,2.448071241E-1,9.597157478E0
1.519209068E0,-9.516951442E-2,-8.559270948E-2,1.035372543E1
1.521206724E0,-2.962824702E-1,7.242459804E-2,1.067933655E1
1.523204380E0,-2.914940715E-1,3.022679687E-1,9.702502251E0
1.525202037E0,-3.537433147E-1,3.788824081E-1,9.266757965E0
1.527199693E0,-3.489548862E-1,3.022679687E-1,9.458293915E0
1.529197349E0,-4.495113790E-1,2.352303118E-1,9.951498985E0
1.531195005E0,-5.309142470E-1,1.346738487E-1,1.007120991E1
1.533192610E0,-4.878185987E-1,2.639607489E-1,9.774328232E0
1.535190214E0,-5.069721937E-1,3.980360329E-1,9.218873978E0
1.537187818E0,-4.590881765E-1,2.831143439E-1,9.123106003E0
1.539185422E0,-3.968389332E-1,-1.855506375E-2,1.030584145E1
1.541183026E0,-4.590881765E-1,5.327098817E-2,1.052610779E1
1.543180630E0,-3.920505345E-1,1.969230920E-1,9.285911560E0
1.545178235E0,-2.962824702E-1,1.873462796E-1,9.060855865E0
1.547175839E0,-2.579752207E-1,1.346738487E-1,9.678560257E0
1.549173443E0,-1.382651478E-1,-5.686229095E-2,9.975440979E0
1.551171047E0,-9.516951442E-2,-1.382651478E-1,1.003769016E1
1.553168651E0,-4.189853091E-3,-8.559270948E-2,9.889249802E0
1.555166255E0,5.805939063E-2,-1.909375787E-1,9.487024307E0
1.557163860E0,1.250970364E-1,-2.196680009E-1,9.908403397E0
1.559161464E0,1.969230920E-1,-1.286883354E-1,9.491812706E0
1.561159068E0,2.064998895E-1,-2.627636492E-1,8.998606682E0
1.563156672E0,3.357867897E-1,-2.100912035E-1,9.807847023E0
1.565154276E0,3.357867897E-1,-2.148796022E-1,9.908403397E0
1.567151880E0,3.309983909E-1,-2.436100245E-1,9.415198326E0
1.569149485E0,3.549404144E-1,-3.298012912E-1,1.031541824E1
1.571147089E0,3.166331649E-1,-5.686229095E-2,1.012388229E1
1.573144693E0,3.166331649E-1,2.543839216E-1,8.831012726E0
1.575142349E0,3.501519859E-1,1.298854351E-1,9.429563522E0
1.577140005E0,2.160767019E-1,1.496376097E-2,1.048301220E1
1.579137662E0,2.256535143E-1,-9.516951442E-2,1.005205631E1
1.581135318E0,2.591723204E-1,-4.189853091E-3,9.616311073E0
1.583132974E0,2.064998895E-1,1.346738487E-1,9.673771858E0
1.585130630E0,1.969230920E-1,3.890577704E-2,9.434351921E0
1.587128078E0,1.873462796E-1,1.346738487E-1,9.587580681E0
1.589125526E0,6.763619930E-2,4.171896577E-1,9.376891136E0
1.591122974E0,1.155202314E-1,1.490390599E-1,8.888473511E0
1.593120422E0,1.586158574E-1,-4.016273320E-1,1.078468132E1
1.595117870E0,1.394622475E-1,-2.723404467E-1,1.135450172E1
1.597115318E0,8.200141042E-2,1.825578809E-1,1.003769016E1
1.599112766E0,9.636662155E-2,5.033808947E-1,8.744821548E0
1.601110214E0,-3.770867735E-2,5.225345492E-1,8.969876289E0
1.603107662E0,-4.189853091E-3,2.591723204E-1,9.664195061E0
1.605105110E0,-4.728548229E-2,2.543839216E-1,9.544485092E0
1.607102610E0,5.386953708E-3,3.070563674E-1,9.525331497E0
1.609100162E0,7.242459804E-2,2.064998895E-1,9.477447510E0
1.611097766E0,1.059434265E-1,1.250970364E-1,9.597157478E0
1.613095422E0,6.284779310E-2,8.200141042E-2,9.865307808E0
1.615093130E0,1.155202314E-1,1.873462796E-1,1.016697788E1
1.617090891E0,1.155202314E-1,2.256535143E-1,9.745597839E0
1.619088651E0,1.011550203E-1,9.157821536E-2,1.012867069E1
1.621086412E0,5.805939063E-2,1.298854351E-1,1.043991661E1
1.623084172E0,1.155202314E-1,2.687491477E-1,9.190143585E0
1.625081932E0,1.298854351E-1,1.346738487E-1,9.520543098E0
1.627079693E0,7.721300423E-2,6.284779310E-2,1.048780060E1
1.629077453E0,3.890577704E-2,3.166331649E-1,9.855731010E0
1.631075214E0,-4.249707982E-2,4.890156984E-1,9.056067467E0
1.633072974E0,-1.376665942E-2,4.459200799E-1,9.424775124E0
1.635070630E0,5.386953708E-3,2.974795699E-1,9.520543098E0
1.637068182E0,5.386953708E-3,5.805939063E-2,9.908403397E0
1.639065682E0,-1.376665942E-2,-2.334346622E-2,1.032020664E1
1.641063182E0,3.411737457E-2,2.112883031E-1,1.027711105E1
1.643060682E0,5.327098817E-2,3.788824081E-1,9.170989990E0
1.645058182E0,-4.189853091E-3,1.107318252E-1,9.534908295E0
1.647055682E0,-3.770867735E-2,-4.189853091E-3,1.020049667E1
1.649053130E0,-1.526303589E-1,7.721300423E-2,9.563638687E0
1.651050578E0,-2.531868219E-1,1.975216344E-2,9.300276756E0
1.653048026E0,-2.627636492E-1,-1.622071713E-1,9.908403397E0
1.655045474E0,-4.878185987E-1,-1.382651478E-1,9.798270226E0
1.657042818E0,-5.979518890E-1,5.985504249E-4,9.400833130E0
1.659039901E0,-5.500678420E-1,-1.286883354E-1,9.386467934E0
1.661036985E0,-6.314706802E-1,-1.430535465E-1,9.716867447E0
1.663034068E0,-7.511807680E-1,1.496376097E-2,9.257181168E0
1.665031151E0,-7.511807680E-1,-1.238999367E-1,9.443928719E0
1.667028235E0,-7.272387743E-1,-4.351461530E-1,1.060751057E1
1.669025318E0,-7.559691668E-1,-4.351461530E-1,1.032499504E1
1.671022401E0,-6.123170853E-1,-2.005143911E-1,9.736021042E0
1.673019485E0,-5.740098357E-1,-1.855506375E-2,9.510966301E0
1.675016568E0,-4.734533727E-1,-1.238999367E-1,9.075222015E0
1.677013703E0,-3.441664875E-1,-3.441664875E-1,9.793481827E0
1.679010891E0,-3.106476665E-1,-4.351461530E-1,9.774328232E0
1.681008130E0,-2.292448133E-1,-5.261258483E-1,9.716867447E0
1.683005422E0,-1.095347255E-1,-5.165489912E-1,1.021486187E1
1.685002766E0,-4.249707982E-2,-3.154360652E-1,9.558850288E0
1.687000162E0,-8.559270948E-2,-2.914940715E-1,9.616311073E0
1.688997610E0,-1.855506375E-2,-1.861491799E-1,9.783905029E0
1.690995110E0,-4.189853091E-3,-4.728548229E-2,9.525331497E0
1.692992662E0,5.985504249E-4,-1.855506375E-2,9.376891136E0
1.694990266E0,4.369417951E-2,4.369417951E-2,9.788693428E0
1.696987922E0,8.678980917E-2,4.369417951E-2,1.001374817E1
1.698985630E0,2.112883031E-1,7.242459804E-2,1.004247856E1
1.700983339E0,2.017114908E-1,1.729810685E-1,1.000895977E1
1.702981047E0,1.538274586E-1,2.974795699E-1,9.597157478E0
1.704978755E0,5.805939063E-2,3.597288132E-1,9.568427086E0
1.706976464E0,6.763619930E-2,1.538274586E-1,9.985017776E0
1.708974172E0,5.386953708E-3,3.070563674E-1,9.649829865E0
1.710971880E0,7.242459804E-2,3.549404144E-1,9.439140320E0
1.712969276E0,1.346738487E-1,2.639607489E-1,9.482235909E0
1.714966672E0,1.681926697E-1,9.157821536E-2,9.865307808E0
1.716964068E0,6.284779310E-2,1.586158574E-1,9.889249802E0
1.718961464E0,8.200141042E-2,2.304419130E-1,9.544485092E0
1.720958912E0,1.107318252E-1,1.442506462E-1,1.007599831E1
1.722956412E0,9.157821536E-2,1.681926697E-1,1.004726696E1
1.724953964E0,5.805939063E-2,1.729810685E-1,9.731232643E0
1.726951568E0,1.107318252E-1,1.298854351E-1,1.011430550E1
1.728949172E0,5.985504249E-4,2.400187254E-1,9.712079048E0
1.730946776E0,-1.622071713E-1,4.124012291E-1,8.802282333E0
1.732944380E0,-1.717839688E-1,3.501519859E-1,9.319430351E0
1.734941985E0,-1.765723825E-1,-4.189853091E-3,1.001374817E1
1.736939589E0,-1.622071713E-1,-1.813607812E-1,1.030584145E1
1.738937193E0,-2.053027898E-1,-5.686229095E-2,9.798270226E0
1.740934797E0,-1.478419602E-1,1.975216344E-2,9.568427086E0
1.742932401E0,-6.165069342E-2,-6.165069342E-2,9.932345390E0
1.744930005E0,-7.122749835E-2,-1.376665942E-2,9.961075783E0
1.746927610E0,-1.095347255E-1,5.386953708E-3,9.635464668E0
1.748925214E0,-8.080431074E-2,1.059434265E-1,9.803058624E0
1.750922818E0,-4.728548229E-2,2.160767019E-1,9.759963036E0
1.752920422E0,-6.165069342E-2,2.974795699E-1,9.180566788E0
1.754918026E0,-5.207388848E-2,1.298854351E-1,9.482235909E0
1.756915630E0,-9.995792061E-2,5.386953708E-3,1.008557510E1
1.758913235E0,-1.047463268E-1,1.634042710E-1,1.007599831E1
1.760910839E0,-1.382651478E-1,3.645172119E-1,9.477447510E0
1.762908443E0,-1.095347255E-1,2.400187254E-1,9.573215485E0
1.764906047E0,-4.728548229E-2,3.890577704E-2,9.822212219E0
1.766903651E0,1.059434265E-1,-3.292027488E-2,1.041118622E1
1.768901255E0,1.011550203E-1,2.304419130E-1,9.807847023E0
1.770898860E0,1.203086376E-1,3.693056107E-1,8.979453087E0
1.772896464E0,1.059434265E-1,2.879027426E-1,9.319430351E0
1.774894068E0,4.369417951E-2,2.543839216E-1,9.563638687E0
1.776891724E0,2.454056777E-2,1.729810685E-1,9.118317604E0
1.778889432E0,1.729810685E-1,-5.686229095E-2,9.736021042E0
1.780887193E0,1.634042710E-1,-4.189853091E-3,1.065060616E1
1.782885005E0,1.059434265E-1,1.729810685E-1,9.951498985E0
1.784882870E0,1.107318252E-1,2.591723204E-1,9.209297180E0
1.786880735E0,1.921346933E-1,1.921346933E-1,1.013824749E1
1.788878599E0,-1.376665942E-2,3.405751884E-1,9.745597839E0
1.790876464E0,-8.559270948E-2,3.309983909E-1,9.396044731E0
1.792874328E0,-5.686229095E-2,2.448071241E-1,9.889249802E0
1.794872089E0,-1.191115379E-1,1.634042710E-1,1.020528507E1
1.796869380E0,-1.478419602E-1,2.831143439E-1,9.827000618E0
1.798866672E0,-1.526303589E-1,3.357867897E-1,9.525331497E0
1.800863964E0,-1.382651478E-1,5.129576921E-1,9.376891136E0
1.802861255E0,-2.053027898E-1,5.225345492E-1,9.228450775E0
1.804858547E0,-7.122749835E-2,2.543839216E-1,9.807847023E0
1.806855891E0,3.411737457E-2,1.017535757E-2,1.043033981E1
1.808853287E0,2.932897024E-2,1.681926697E-1,1.031062984E1
1.810850735E0,1.975216344E-2,5.321113467E-1,9.640253067E0
1.812848235E0,8.200141042E-2,5.799953341E-1,9.199720383E0
1.814845839E0,9.157821536E-2,4.219780564E-1,9.688137054E0
1.816843547E0,1.346738487E-1,4.507084787E-1,9.769539833E0
1.818841360E0,1.250970364E-1,5.225345492E-1,9.295488358E0
1.820839276E0,1.203086376E-1,4.219780564E-1,9.616311073E0
1.822837297E0,1.634042710E-1,2.687491477E-1,9.836577415E0
1.824835370E0,1.107318252E-1,3.022679687E-1,9.649829865E0
1.826833495E0,1.921346933E-1,1.969230920E-1,9.846154213E0
1.828831672E0,2.304419130E-1,2.112883031E-1,9.817423820E0
1.830829849E0,3.214215636E-1,1.538274586E-1,1.003769016E1
1.832828026E0,2.400187254E-1,3.645172119E-1,9.731232643E0
1.834826203E0,2.400187254E-1,3.645172119E-1,9.046490669E0
1.836824276E0,2.783259451E-1,1.873462796E-1,9.903614998E0
1.838821880E0,2.064998895E-1,1.873462796E-1,9.855731010E0
1.840819432E0,1.059434265E-1,2.591723204E-1,9.276334763E0
1.842816985E0,1.490390599E-1,1.496376097E-2,9.985017776E0
1.844814485E0,2.112883031E-1,-1.430535465E-1,1.036330223E1
1.846811985E0,2.831143439E-1,-1.143231317E-1,9.841365814E0
1.848809485E0,2.352303118E-1,5.327098817E-2,9.477447510E0
1.850806985E0,1.873462796E-1,-2.334346622E-2,9.238027573E0
1.852804485E0,2.160767019E-1,-1.095347255E-1,9.860519409E0
1.854801985E0,2.256535143E-1,-1.191115379E-1,9.755174637E0
1.856799485E0,1.107318252E-1,1.155202314E-1,9.463082314E0
1.858796985E0,1.155202314E-1,1.729810685E-1,9.673771858E0
1.860794485E0,2.208651006E-1,-5.207388848E-2,9.927556992E0
1.862791985E0,2.543839216E-1,-1.095347255E-1,1.047343540E1
1.864789485E0,2.304419130E-1,5.386953708E-3,1.017176628E1
1.866786985E0,1.921346933E-1,2.352303118E-1,9.506177902E0
1.868784537E0,1.490390599E-1,3.597288132E-1,9.285911560E0
1.870782141E0,1.873462796E-1,3.788824081E-1,9.285911560E0
1.872779797E0,1.873462796E-1,3.309983909E-1,9.563638687E0
1.874777505E0,1.729810685E-1,2.448071241E-1,9.841365814E0
1.876775214E0,2.208651006E-1,2.400187254E-1,9.994594574E0
1.878772922E0,1.825578809E-1,2.879027426E-1,9.913191795E0
1.880770630E0,3.411737457E-2,4.842272997E-1,9.611522675E0
1.882768339E0,2.932897024E-2,7.428010702E-1,9.673771858E0
1.884766047E0,9.157821536E-2,8.864531517E-1,9.372102737E0
1.886763755E0,1.873462796E-1,7.428010702E-1,9.348160744E0
1.888761464E0,2.687491477E-1,5.895721912E-1,9.740809441E0
1.890759172E0,2.256535143E-1,4.842272997E-1,1.005205631E1
1.892756880E0,2.639607489E-1,3.405751884E-1,1.037287903E1
1.894754589E0,2.304419130E-1,6.230909824E-1,9.827000618E0
1.896752297E0,9.636662155E-2,7.571662664E-1,9.156624794E0
1.898750005E0,1.059434265E-1,6.422445774E-1,9.065644264E0
1.900747714E0,2.448071241E-1,4.076128304E-1,9.487024307E0
1.902745422E0,2.926911712E-1,1.346738487E-1,1.035372543E1
1.904743130E0,3.166331649E-1,3.890577704E-2,1.048780060E1
1.906740839E0,3.501519859E-1,1.729810685E-1,9.951498985E0
1.908738547E0,3.022679687E-1,2.208651006E-1,9.582792282E0
1.910736255E0,1.729810685E-1,2.064998895E-1,9.491812706E0
1.912733964E0,1.681926697E-1,1.634042710E-1,9.477447510E0
1.914731672E0,1.586158574E-1,1.538274586E-1,9.238027573E0
1.916729380E0,2.064998895E-1,5.386953708E-3,9.736021042E0
1.918726985E0,1.777694821E-1,2.932897024E-2,1.006163311E1
1.920724380E0,1.634042710E-1,7.721300423E-2,9.822212219E0
1.922721776E0,1.681926697E-1,1.203086376E-1,9.874884605E0
1.924719172E0,1.059434265E-1,1.394622475E-1,9.625887871E0
1.926716568E0,1.107318252E-1,3.549404144E-1,9.261969566E0
1.928713964E0,1.496376097E-2,3.645172119E-1,9.381679535E0
1.930711360E0,-2.813187055E-2,2.639607489E-1,9.827000618E0
1.932708755E0,-8.978256024E-3,7.721300423E-2,1.008078671E1
1.934706151E0,-5.686229095E-2,-6.165069342E-2,1.000895977E1
1.936703547E0,-1.376665942E-2,-2.813187055E-2,1.000417137E1
1.938700995E0,1.298854351E-1,1.107318252E-1,9.534908295E0
1.940698495E0,1.586158574E-1,-7.601590455E-2,9.343372345E0
1.942696047E0,1.777694821E-1,-4.064157307E-1,1.035851383E1
1.944693651E0,1.394622475E-1,-3.154360652E-1,9.951498985E0
1.946691307E0,1.729810685E-1,-1.574187577E-1,9.712079048E0
1.948689016E0,1.155202314E-1,-6.165069342E-2,9.467870712E0
1.950686776E0,5.805939063E-2,-3.292027488E-2,9.242815971E0
1.952684537E0,4.848258570E-2,-2.053027898E-1,9.415198326E0
1.954682297E0,5.805939063E-2,-2.962824702E-1,1.003769016E1
1.956680057E0,4.848258570E-2,-1.286883354E-1,1.009036350E1
1.958677818E0,3.411737457E-2,3.890577704E-2,9.798270226E0
1.960675578E0,5.386953708E-3,2.932897024E-2,9.597157478E0
1.962673182E0,-4.189853091E-3,2.064998895E-1,9.487024307E0
1.964670787E0,5.386953708E-3,2.400187254E-1,9.448717117E0
1.966668391E0,-4.189853091E-3,1.298854351E-1,9.807847023E0
1.968665995E0,-9.516951442E-2,5.386953708E-3,9.831789017E0
1.970663599E0,-4.189853091E-3,1.250970364E-1,1.045428181E1
1.972661203E0,-6.165069342E-2,4.938040972E-1,9.314641953E0
1.974658703E0,-1.478419602E-1,5.512649417E-1,9.046490669E0
1.976656203E0,-1.238999367E-1,3.022679687E-1,9.898826599E0
1.978653703E0,-2.053027898E-1,1.017535757E-2,1.065539455E1
1.980651203E0,-2.005143911E-1,3.166331649E-1,1.021007347E1
1.982648703E0,-1.526303589E-1,8.816647530E-1,8.869319916E0
1.984646047E0,-1.382651478E-1,8.625111580E-1,8.538920403E0
1.986643391E0,-2.483984232E-1,4.507084787E-1,1.001374817E1
1.988640735E0,-3.250128925E-1,3.357867897E-1,1.098579407E1
1.990638078E0,-2.819172442E-1,5.177460909E-1,1.017176628E1
1.992635422E0,-3.010708690E-1,7.523778677E-1,9.582792282E0
1.994632766E0,-3.441664875E-1,8.194155097E-1,9.424775124E0
1.996630110E0,-3.968389332E-1,7.906851172E-1,9.381679535E0
1.998627453E0,-3.298012912E-1,7.571662664E-1,9.980229378E0
2.000624849E0,-2.962824702E-1,7.571662664E-1,9.578003883E0
2.002622297E0,-3.202244639E-1,7.571662664E-1,9.300276756E0
2.004619797E0,-2.867056429E-1,5.512649417E-1,1.009994030E1
2.006617349E0,-2.196680009E-1,5.608417392E-1,1.005684471E1
2.008614901E0,-3.010708690E-1,6.087257862E-1,9.716867447E0
2.010612453E0,-2.100912035E-1,5.608417392E-1,9.985017776E0
2.012610005E0,-2.244564146E-1,7.428010702E-1,9.520543098E0
2.014607557E0,-2.627636492E-1,8.433575630E-1,8.725667953E0
2.016605110E0,-2.005143911E-1,5.991489887E-1,9.453505516E0
2.018602714E0,-1.622071713E-1,4.315548539E-1,1.027711105E1
2.020600370E0,-1.238999367E-1,4.698620737E-1,1.001853657E1
2.022598078E0,5.985504249E-4,4.938040972E-1,9.965864182E0
2.024595839E0,-8.978256024E-3,6.374561787E-1,9.841365814E0
2.026593651E0,-4.728548229E-2,6.374561787E-1,9.443928719E0
2.028591464E0,-4.249707982E-2,4.363432527E-1,9.410409927E0
2.030589276E0,-1.376665942E-2,3.453635871E-1,1.018613148E1
2.032587089E0,-1.855506375E-2,5.704185367E-1,9.961075783E0
2.034584901E0,-1.376665942E-2,9.151836038E-1,8.720879555E0
2.036582505E0,7.242459804E-2,7.140706778E-1,8.960299492E0
2.038580110E0,1.681926697E-1,1.777694821E-1,1.069370174E1
2.040577662E0,1.825578809E-1,3.357867897E-1,1.080862331E1
2.042575214E0,2.208651006E-1,6.326677799E-1,9.266757965E0
2.044572766E0,2.831143439E-1,5.943605900E-1,9.276334763E0
2.046570318E0,2.495955229E-1,5.129576921E-1,9.582792282E0
2.048567870E0,2.160767019E-1,3.836708367E-1,9.736021042E0
2.050565422E0,2.831143439E-1,3.357867897E-1,1.016697788E1
2.052562974E0,2.064998895E-1,5.321113467E-1,9.400833130E0
2.054560526E0,2.304419130E-1,5.704185367E-1,9.075222015E0
2.056558130E0,3.070563674E-1,2.448071241E-1,1.068891335E1
2.058555735E0,2.448071241E-1,3.070563674E-1,1.081820011E1
2.060553339E0,1.250970364E-1,5.847837925E-1,9.807847023E0
2.062550943E0,-4.189853091E-3,7.571662664E-1,9.429563522E0
2.064548547E0,-7.122749835E-2,8.529343605E-1,9.075222015E0
2.066546151E0,5.985504249E-4,7.858967185E-1,9.352949142E0
2.068543807E0,3.411737457E-2,7.619546652E-1,1.004247856E1
2.070541516E0,5.327098817E-2,7.763199210E-1,9.386467934E0
2.072539276E0,9.636662155E-2,4.794389009E-1,9.951498985E0
2.074537037E0,9.636662155E-2,4.459200799E-1,1.044470501E1
2.076534797E0,4.848258570E-2,6.230909824E-1,9.640253067E0
2.078532557E0,8.200141042E-2,7.236474752E-1,9.496601105E0
2.080530318E0,-1.376665942E-2,7.763199210E-1,9.056067467E0
2.082528078E0,8.200141042E-2,5.273229480E-1,9.151836395E0
2.084525839E0,6.763619930E-2,2.208651006E-1,1.037766743E1
2.086523599E0,-1.376665942E-2,4.028244317E-1,9.894038200E0
2.088521360E0,1.975216344E-2,6.278793812E-1,8.998606682E0
2.090519120E0,-8.978256024E-3,4.171896577E-1,9.439140320E0
2.092516880E0,1.017535757E-2,3.357867897E-1,9.764751434E0
2.094514641E0,1.496376097E-2,9.157821536E-2,9.793481827E0
2.096512401E0,1.394622475E-1,-5.686229095E-2,1.048301220E1
2.098510162E0,1.634042710E-1,3.118447661E-1,1.007120991E1
2.100507870E0,1.346738487E-1,6.039373875E-1,9.170989990E0
2.102505422E0,1.634042710E-1,7.571662664E-1,9.180566788E0
2.104502974E0,1.107318252E-1,5.943605900E-1,9.740809441E0
2.106500526E0,1.873462796E-1,4.363432527E-1,9.941922188E0
2.108498078E0,2.256535143E-1,4.124012291E-1,9.999382973E0
2.110495630E0,2.926911712E-1,4.507084787E-1,9.841365814E0
2.112493182E0,3.884592354E-1,5.752069354E-1,9.970652580E0
2.114490735E0,2.974795699E-1,7.428010702E-1,9.611522675E0
2.116488287E0,4.028244317E-1,6.853402257E-1,9.985017776E0
2.118485839E0,3.980360329E-1,7.092822790E-1,1.005684471E1
2.120483391E0,3.597288132E-1,7.763199210E-1,9.764751434E0
2.122480943E0,2.687491477E-1,9.199720025E-1,9.209297180E0
2.124478495E0,2.017114908E-1,8.385691643E-1,9.218873978E0
2.126476047E0,2.064998895E-1,4.459200799E-1,1.043033981E1
2.128473651E0,2.879027426E-1,5.512649417E-1,1.063624096E1
2.130471307E0,3.453635871E-1,8.289923668E-1,9.348160744E0
2.132469016E0,3.453635871E-1,9.630676508E-1,8.965087891E0
2.134466776E0,3.980360329E-1,1.025316834E0,9.070432663E0
2.136464589E0,3.501519859E-1,6.805518270E-1,9.692925453E0
2.138462401E0,2.974795699E-1,4.363432527E-1,1.111508179E1
2.140460214E0,2.208651006E-1,7.044938207E-1,9.908403397E0
2.142458026E0,1.777694821E-1,9.247604012E-1,8.783128738E0
2.144455839E0,1.921346933E-1,9.487023950E-1,9.755174637E0
2.146453651E0,2.160767019E-1,8.289923668E-1,9.937133789E0
2.148451464E0,2.017114908E-1,7.523778677E-1,9.333795547E0
2.150449276E0,2.017114908E-1,4.507084787E-1,1.027232265E1
2.152447089E0,1.346738487E-1,5.560533404E-1,1.013345909E1
2.154444901E0,1.496376097E-2,8.289923668E-1,9.017760277E0
2.156442610E0,7.242459804E-2,7.571662664E-1,9.640253067E0
2.158440214E0,7.721300423E-2,5.895721912E-1,9.702502251E0
2.160437818E0,-3.770867735E-2,3.118447661E-1,1.005205631E1
2.162435422E0,-4.249707982E-2,1.107318252E-1,1.066975975E1
2.164433026E0,-2.813187055E-2,5.225345492E-1,9.692925453E0
2.166430630E0,-3.770867735E-2,7.236474752E-1,8.831012726E0
2.168428235E0,-4.249707982E-2,6.278793812E-1,8.859743118E0
2.170425839E0,-2.334346622E-2,3.453635871E-1,9.740809441E0
2.172423443E0,-6.165069342E-2,2.495955229E-1,1.043512821E1
2.174421047E0,-1.143231317E-1,2.448071241E-1,1.030584145E1
2.176418651E0,-8.080431074E-2,4.028244317E-1,9.645041466E0
2.178416255E0,-1.143231317E-1,4.650736749E-1,9.223662376E0
2.180413860E0,-1.669955701E-1,4.698620737E-1,9.333795547E0
2.182411464E0,-2.100912035E-1,4.842272997E-1,1.013824749E1
2.184409068E0,-2.483984232E-1,4.650736749E-1,9.453505516E0
2.186406672E0,-3.393780887E-1,3.788824081E-1,9.961075783E0
2.188404276E0,-3.345896900E-1,6.709750295E-1,9.759963036E0
2.190401880E0,-3.728969097E-1,6.470330358E-1,8.629899979E0
2.192399485E0,-3.298012912E-1,4.028244317E-1,9.917980194E0
2.194397089E0,-3.345896900E-1,4.171896577E-1,1.043991661E1
2.196394693E0,-2.914940715E-1,6.374561787E-1,1.006642151E1
2.198392297E0,-2.244564146E-1,7.906851172E-1,9.578003883E0
2.200389901E0,-2.962824702E-1,6.326677799E-1,8.821435928E0
2.202387505E0,-3.010708690E-1,4.267664552E-1,1.027711105E1
2.204385110E0,-2.579752207E-1,3.740940094E-1,1.008078671E1
2.206382714E0,-2.340332121E-1,3.932476342E-1,9.352949142E0
2.208380318E0,-2.148796022E-1,5.752069354E-1,9.850942612E0
2.210377922E0,-3.058592677E-1,7.667431235E-1,8.998606682E0
2.212375526E0,-3.010708690E-1,6.949170232E-1,9.276334763E0
2.214373130E0,-3.058592677E-1,4.650736749E-1,1.063624096E1
2.216370735E0,-3.058592677E-1,2.304419130E-1,9.989806175E0
2.218368339E0,-2.100912035E-1,3.309983909E-1,1.040639782E1
2.220365943E0,-3.298012912E-1,6.230909824E-1,9.587580681E0
2.222363547E0,-3.681085110E-1,5.704185367E-1,9.242815971E0
2.224361151E0,-2.771288455E-1,5.129576921E-1,9.927556992E0
2.226358755E0,-2.196680009E-1,5.321113467E-1,9.606734276E0
2.228356360E0,-2.771288455E-1,7.092822790E-1,9.439140320E0
2.230353964E0,-1.669955701E-1,8.146271110E-1,9.276334763E0
2.232351568E0,-2.292448133E-1,5.225345492E-1,9.654618263E0
2.234349172E0,-1.430535465E-1,1.394622475E-1,1.083256531E1
2.236346776E0,-1.861491799E-1,6.763619930E-2,9.932345390E0
2.238344380E0,-2.005143911E-1,1.777694821E-1,1.011430550E1
2.240341880E0,-8.559270948E-2,4.076128304E-1,9.740809441E0
2.242339016E0,-1.813607812E-1,6.326677799E-1,8.831012726E0
2.244336151E0,-8.080431074E-2,4.890156984E-1,9.036913872E0
2.246333287E0,-1.095347255E-1,1.921346933E-1,9.927556992E0
2.248330422E0,-8.559270948E-2,-4.189853091E-3,1.079904652E1
2.250327557E0,-8.978256024E-3,2.064998895E-1,9.697713852E0
2.252324693E0,3.411737457E-2,5.368997455E-1,9.309853554E0
2.254321880E0,5.805939063E-2,4.554968774E-1,8.989029884E0
2.256319120E0,1.298854351E-1,2.448071241E-1,1.010472870E1
2.258316412E0,7.721300423E-2,4.028244317E-1,1.027711105E1
2.260313755E0,5.386953708E-3,4.507084787E-1,9.170989990E0
2.262311151E0,5.985504249E-4,-1.376665942E-2,1.068891335E1
2.264308599E0,2.932897024E-2,-1.855506375E-2,1.081341171E1
2.266306099E0,5.327098817E-2,4.650736749E-1,9.147047997E0
2.268303651E0,7.242459804E-2,5.416881442E-1,9.041702271E0
2.270301255E0,1.059434265E-1,4.076128304E-1,8.845377922E0
2.272298912E0,1.729810685E-1,6.763619930E-2,9.678560257E0
2.274296620E0,2.256535143E-1,3.411737457E-2,9.975440979E0
2.276294380E0,1.873462796E-1,1.203086376E-1,9.424775124E0
2.278292141E0,1.777694821E-1,1.729810685E-1,9.908403397E0
2.280289901E0,2.735375464E-1,1.681926697E-1,9.649829865E0
2.282287662E0,2.017114908E-1,1.346738487E-1,9.558850288E0
2.284285422E0,2.448071241E-1,-7.601590455E-2,1.000895977E1
2.286283182E0,1.729810685E-1,1.203086376E-1,9.190143585E0
2.288280943E0,2.591723204E-1,1.203086376E-1,9.597157478E0
2.290278547E0,3.597288132E-1,2.304419130E-1,1.014303589E1
2.292275995E0,3.405751884E-1,3.022679687E-1,9.410409927E0
2.294273443E0,3.405751884E-1,2.112883031E-1,1.015740108E1
2.296270891E0,4.507084787E-1,2.879027426E-1,9.510966301E0
2.298268339E0,4.698620737E-1,2.932897024E-2,1.019091988E1
2.300265787E0,3.836708367E-1,1.873462796E-1,1.035851383E1
2.302263235E0,4.124012291E-1,4.076128304E-1,9.137471199E0
2.304260682E0,4.219780564E-1,2.783259451E-1,1.011909389E1
2.306258130E0,3.836708367E-1,4.267664552E-1,9.673771858E0
2.308255474E0,2.926911712E-1,5.081692934E-1,9.008183479E0
2.310252766E0,2.639607489E-1,3.740940094E-1,9.716867447E0
2.312250057E0,2.879027426E-1,3.309983909E-1,1.040639782E1
2.314247349E0,2.687491477E-1,4.028244317E-1,9.314641953E0
2.316244641E0,3.070563674E-1,5.081692934E-1,1.036330223E1
2.318241932E0,2.639607489E-1,7.284358740E-1,9.405621529E0
2.320239224E0,2.112883031E-1,4.794389009E-1,9.319430351E0
2.322236516E0,2.256535143E-1,3.453635871E-1,1.042555141E1
2.324233807E0,5.805939063E-2,3.597288132E-1,9.578003883E0
2.326231151E0,7.721300423E-2,3.740940094E-1,1.005205631E1
2.328228547E0,3.411737457E-2,4.842272997E-1,9.640253067E0
2.330225943E0,1.107318252E-1,3.693056107E-1,9.740809441E0
2.332223339E0,1.250970364E-1,4.507084787E-1,9.788693428E0
2.334220735E0,2.454056777E-2,3.884592354E-1,9.194931984E0
2.336218130E0,8.200141042E-2,4.938040972E-1,9.381679535E0
2.338215526E0,6.284779310E-2,1.921346933E-1,9.558850288E0
2.340212922E0,4.848258570E-2,-2.723404467E-1,9.999382973E0
2.342210318E0,1.155202314E-1,-1.909375787E-1,1.051174259E1
2.344207714E0,3.890577704E-2,5.327098817E-2,9.467870712E0
2.346205110E0,7.242459804E-2,2.352303118E-1,8.888473511E0
2.348202505E0,1.155202314E-1,-1.765723825E-1,9.400833130E0
2.350199901E0,1.011550203E-1,-5.452794433E-1,1.103846741E1
2.352197297E0,1.394622475E-1,-2.100912035E-1,9.779116631E0
2.354194693E0,1.011550203E-1,5.327098817E-2,9.036913872E0
2.356192089E0,1.059434265E-1,-2.340332121E-1,9.726444244E0
2.358189485E0,1.155202314E-1,-1.855506375E-2,9.836577415E0
2.360186880E0,1.298854351E-1,2.064998895E-1,9.783905029E0
2.362184276E0,2.112883031E-1,2.687491477E-1,9.520543098E0
2.364181464E0,1.059434265E-1,1.250970364E-1,9.927556992E0
2.366178651E0,1.017535757E-2,6.284779310E-2,1.015740108E1
2.368175839E0,1.011550203E-1,1.017535757E-2,9.817423820E0
2.370173026E0,5.327098817E-2,1.490390599E-1,9.894038200E0
2.372170214E0,4.848258570E-2,5.129576921E-1,9.578003883E0
2.374167401E0,5.386953708E-3,5.752069354E-1,8.955511093E0
2.376164589E0,-2.334346622E-2,2.448071241E-1,9.400833130E0
2.378161776E0,-1.143231317E-1,3.166331649E-1,9.788693428E0
2.380158964E0,-6.643909961E-2,4.076128304E-1,9.367314339E0
2.382156203E0,-1.095347255E-1,4.411316514E-1,9.123106003E0
2.384153495E0,-1.813607812E-1,2.304419130E-1,1.038724422E1
2.386150839E0,-1.861491799E-1,1.394622475E-1,9.999382973E0
2.388148235E0,-1.765723825E-1,2.543839216E-1,9.338583946E0
2.390145682E0,-1.717839688E-1,1.155202314E-1,1.060751057E1
2.392143182E0,-1.765723825E-1,6.763619930E-2,9.865307808E0
2.394140682E0,-1.909375787E-1,-3.728969097E-1,1.019570827E1
2.396138182E0,-1.622071713E-1,6.763619930E-2,1.036809063E1
2.398135682E0,-1.765723825E-1,1.442506462E-1,8.730456352E0
2.400133182E0,-1.765723825E-1,-1.855506375E-2,9.194931984E0
2.402130682E0,-1.286883354E-1,-1.526303589E-1,9.783905029E0
2.404128182E0,-8.559270948E-2,-1.143231317E-1,9.534908295E0
2.406125682E0,1.017535757E-2,-2.340332121E-1,9.927556992E0
2.408123182E0,7.242459804E-2,-5.835866928E-1,9.654618263E0
2.410120682E0,1.586158574E-1,-5.500678420E-1,1.073679733E1
2.412118182E0,6.763619930E-2,-2.340332121E-1,9.391256332E0
2.414115682E0,2.454056777E-2,-3.920505345E-1,9.443928719E0
2.416113182E0,6.284779310E-2,-4.734533727E-1,1.053089619E1
2.418110474E0,-1.376665942E-2,-1.526303589E-1,9.649829865E0
2.420107766E0,-3.292027488E-2,1.155202314E-1,8.835801125E0
2.422105057E0,-4.189853091E-3,-2.196680009E-1,9.070432663E0
2.424102349E0,5.805939063E-2,-3.298012912E-1,1.035851383E1
2.426099641E0,-5.207388848E-2,1.059434265E-1,9.563638687E0
2.428096932E0,-5.207388848E-2,-2.813187055E-2,8.926780701E0
2.430094172E0,-8.978256024E-3,-2.148796022E-1,1.034414864E1
2.432091255E0,-1.238999367E-1,-3.292027488E-2,1.038245583E1
2.434088339E0,-9.516951442E-2,-1.191115379E-1,1.010472870E1
2.436085422E0,-1.238999367E-1,1.538274586E-1,1.002811337E1
2.438082505E0,-2.196680009E-1,5.656301379E-1,9.012971878E0
2.440079589E0,-2.483984232E-1,4.363432527E-1,8.859743118E0
2.442076724E0,-4.112041295E-1,3.788824081E-1,9.391256332E0
2.444073912E0,-3.441664875E-1,1.586158574E-1,9.654618263E0
2.446071151E0,-3.585317135E-1,-3.770867735E-2,1.014782429E1
2.448068443E0,-3.824737072E-1,-8.978256024E-3,1.055483818E1
2.450065787E0,-4.495113790E-1,4.369417951E-2,1.030105305E1
2.452063182E0,-4.734533727E-1,6.284779310E-2,9.759963036E0
2.454060630E0,-4.351461530E-1,7.721300423E-2,9.855731010E0
2.456058130E0,-4.638765752E-1,3.836708367E-1,9.549273491E0
2.458055682E0,-5.117605925E-1,4.794389009E-1,8.883685112E0
2.460053287E0,-4.495113790E-1,1.634042710E-1,9.271546364E0
2.462050943E0,-4.016273320E-1,-2.148796022E-1,1.026753426E1
2.464048599E0,-3.920505345E-1,-1.478419602E-1,1.040639782E1
2.466046255E0,-3.345896900E-1,-1.143231317E-1,1.018134308E1
2.468043912E0,-3.298012912E-1,2.932897024E-2,9.879673004E0
2.470041568E0,-3.250128925E-1,1.298854351E-1,9.276334763E0
2.472039120E0,-3.202244639E-1,-3.292027488E-2,9.472659111E0
2.474036672E0,-2.867056429E-1,-2.244564146E-1,9.573215485E0
2.476034224E0,-2.005143911E-1,-1.526303589E-1,9.367314339E0
2.478031776E0,-9.516951442E-2,-2.388216257E-1,9.850942612E0
2.480029328E0,-1.765723825E-1,-2.148796022E-1,9.549273491E0
2.482026880E0,-1.095347255E-1,-8.559270948E-2,9.415198326E0
2.484024432E0,-7.122749835E-2,-5.207388848E-2,9.223662376E0
2.486021932E0,2.454056777E-2,-2.914940715E-1,9.688137054E0
2.488019432E0,1.203086376E-1,-4.782418013E-1,1.041597462E1
2.490016776E0,1.203086376E-1,-3.106476665E-1,1.013345909E1
2.492014120E0,1.203086376E-1,-1.574187577E-1,9.841365814E0
2.494011464E0,1.634042710E-1,-9.516951442E-2,9.645041466E0
2.496008807E0,2.208651006E-1,2.495955229E-1,9.032125473E0
2.498006151E0,2.304419130E-1,1.825578809E-1,8.318654060E0
2.500003495E0,2.208651006E-1,-2.813187055E-2,9.798270226E0
2.502000839E0,2.448071241E-1,-1.622071713E-1,1.111029339E1
2.503998182E0,2.687491477E-1,1.017535757E-2,9.640253067E0
2.505995526E0,2.639607489E-1,1.011550203E-1,9.913191795E0
2.507992870E0,3.262099922E-1,5.805939063E-2,1.039682102E1
2.509990214E0,2.160767019E-1,8.200141042E-2,9.697713852E0
2.511987557E0,2.448071241E-1,2.160767019E-1,9.668983459E0
2.513984901E0,2.064998895E-1,1.825578809E-1,9.314641953E0
2.515982245E0,2.974795699E-1,9.157821536E-2,9.352949142E0
2.517979589E0,3.693056107E-1,2.017114908E-1,9.755174637E0
2.519976932E0,3.788824081E-1,1.298854351E-1,9.779116631E0
2.521974276E0,4.842272997E-1,-7.601590455E-2,1.032978344E1
2.523971620E0,4.267664552E-1,-1.286883354E-1,1.017176628E1
2.525968964E0,3.980360329E-1,-4.189853091E-3,9.898826599E0
2.527966307E0,3.166331649E-1,2.879027426E-1,8.974664688E0
2.529963651E0,2.639607489E-1,1.107318252E-1,8.716091156E0
2.531960995E0,2.591723204E-1,-8.559270948E-2,1.046864700E1
2.533958339E0,2.208651006E-1,1.017535757E-2,9.707290649E0
2.535955682E0,1.921346933E-1,-2.627636492E-1,9.721655846E0
2.537953026E0,2.543839216E-1,-2.675520480E-1,1.057399178E1
2.539950370E0,1.442506462E-1,1.634042710E-1,9.558850288E0
2.541947714E0,1.394622475E-1,2.304419130E-1,8.811859131E0
2.543945110E0,1.777694821E-1,1.250970364E-1,9.386467934E0
2.545942557E0,1.777694821E-1,1.203086376E-1,9.951498985E0
2.547940057E0,6.763619930E-2,-1.095347255E-1,1.016697788E1
2.549937610E0,2.932897024E-2,3.411737457E-2,9.898826599E0
2.551935214E0,1.017535757E-2,1.059434265E-1,9.721655846E0
2.553932818E0,-3.292027488E-2,1.496376097E-2,9.668983459E0
2.555930422E0,-3.292027488E-2,6.763619930E-2,9.664195061E0
2.557928026E0,-8.559270948E-2,3.070563674E-1,9.534908295E0
2.559925630E0,-4.249707982E-2,2.256535143E-1,9.640253067E0
2.561923078E0,-1.855506375E-2,9.157821536E-2,1.023880386E1
2.563920370E0,-1.376665942E-2,1.681926697E-1,1.048301220E1
2.565917662E0,-3.770867735E-2,4.650736749E-1,9.587580681E0
2.567914953E0,-1.191115379E-1,5.752069354E-1,8.759186745E0
2.569912193E0,-1.334767491E-1,2.974795699E-1,9.103952408E0
2.571909276E0,-8.080431074E-2,-2.813187055E-2,1.044949341E1
2.573906360E0,3.890577704E-2,1.203086376E-1,1.036809063E1
2.575903443E0,2.454056777E-2,3.884592354E-1,9.238027573E0
2.577900526E0,2.932897024E-2,4.507084787E-1,8.969876289E0
2.579897610E0,6.284779310E-2,4.698620737E-1,9.616311073E0
2.581894745E0,1.825578809E-1,3.411737457E-2,9.970652580E0
2.583891932E0,1.634042710E-1,-7.122749835E-2,1.047343540E1
2.585889172E0,2.304419130E-1,1.825578809E-1,9.951498985E0
2.587886464E0,2.783259451E-1,3.645172119E-1,9.127894402E0
2.589883807E0,3.166331649E-1,5.704185367E-1,9.285911560E0
2.591881203E0,3.645172119E-1,3.836708367E-1,9.683348656E0
2.593878651E0,3.405751884E-1,-8.080431074E-2,1.033457184E1
2.595876151E0,3.836708367E-1,-8.080431074E-2,1.064102936E1
2.597873703E0,3.405751884E-1,3.118447661E-1,9.774328232E0
2.599871255E0,2.400187254E-1,6.566098332E-1,8.586804390E0
2.601868807E0,2.687491477E-1,6.039373875E-1,8.672995567E0
2.603866360E0,2.687491477E-1,6.763619930E-2,1.054526138E1
2.605863912E0,3.309983909E-1,-1.047463268E-1,1.124436855E1
2.607861464E0,2.448071241E-1,6.087257862E-1,9.678560257E0
2.609858964E0,1.586158574E-1,8.289923668E-1,8.476671219E0
2.611856255E0,1.777694821E-1,5.416881442E-1,9.343372345E0
2.613853547E0,1.634042710E-1,2.783259451E-1,1.042555141E1
2.615850839E0,1.346738487E-1,4.650736749E-1,1.017655468E1
2.617848130E0,1.490390599E-1,8.481459618E-1,9.099164009E0
2.619845422E0,1.250970364E-1,6.135141850E-1,9.467870712E0
2.621842714E0,1.442506462E-1,2.926911712E-1,1.063624096E1
2.623840005E0,4.369417951E-2,5.464765429E-1,1.007120991E1
2.625837297E0,1.975216344E-2,8.960300088E-1,9.056067467E0
2.627834589E0,-2.334346622E-2,9.295488000E-1,8.936357498E0
2.629831880E0,-5.207388848E-2,7.092822790E-1,9.975440979E0
2.631829172E0,-8.559270948E-2,3.645172119E-1,1.032499504E1
2.633826464E0,-1.909375787E-1,5.512649417E-1,9.702502251E0
2.635823807E0,-2.244564146E-1,8.577227592E-1,9.118317604E0
2.637821203E0,-1.909375787E-1,4.794389009E-1,9.467870712E0
2.639818651E0,-1.622071713E-1,3.309983909E-1,1.062666416E1
2.641816099E0,-2.053027898E-1,5.321113467E-1,9.601945877E0
2.643813547E0,-2.483984232E-1,5.608417392E-1,8.998606682E0
2.645810995E0,-3.681085110E-1,6.087257862E-1,9.151836395E0
2.647808443E0,-3.058592677E-1,3.357867897E-1,9.640253067E0
2.649805891E0,-1.765723825E-1,2.064998895E-1,1.037287903E1
2.651803339E0,-1.334767491E-1,4.369417951E-2,1.068412495E1
2.653800682E0,-1.669955701E-1,2.352303118E-1,1.031541824E1
2.655797870E0,-2.244564146E-1,7.523778677E-1,9.137471199E0
2.657794953E0,-2.579752207E-1,6.661866307E-1,8.931569099E0
2.659792037E0,-2.771288455E-1,6.470330358E-1,9.357737541E0
2.661789120E0,-2.005143911E-1,3.932476342E-1,9.994594574E0
2.663786203E0,-9.038111567E-2,6.284779310E-2,1.074158573E1
2.665783287E0,-1.382651478E-1,4.842272997E-1,9.764751434E0
2.667780370E0,-1.286883354E-1,7.667431235E-1,9.080010414E0
2.669777453E0,-8.080431074E-2,4.554968774E-1,9.467870712E0
2.671774537E0,-2.334346622E-2,3.453635871E-1,1.019570827E1
2.673771620E0,-2.813187055E-2,4.124012291E-1,1.017655468E1
2.675768755E0,-5.686229095E-2,8.146271110E-1,9.099164009E0
2.677765943E0,-1.286883354E-1,8.098387122E-1,8.826224327E0
2.679763182E0,-1.047463268E-1,5.081692934E-1,9.683348656E0
2.681760474E0,-1.238999367E-1,4.171896577E-1,1.048301220E1
2.683757766E0,-8.080431074E-2,1.825578809E-1,1.010472870E1
2.685755057E0,-8.978256024E-3,3.166331649E-1,1.038245583E1
2.687752349E0,-3.770867735E-2,4.794389009E-1,9.898826599E0
2.689749641E0,-1.191115379E-1,6.470330358E-1,8.941145897E0
2.691746932E0,-1.143231317E-1,4.411316514E-1,9.611522675E0
2.693744224E0,-3.292027488E-2,2.735375464E-1,1.079425812E1
2.695741516E0,1.011550203E-1,2.974795699E-1,1.080383492E1
2.697738807E0,1.538274586E-1,6.278793812E-1,9.578003883E0
2.699736099E0,-1.143231317E-1,1.312621117E0,7.097610950E0
2.701733391E0,-1.238999367E-1,7.858967185E-1,7.791929245E0
2.703730682E0,6.763619930E-2,1.975216344E-2,1.020528507E1
2.705727974E0,2.208651006E-1,-3.250128925E-1,1.215895367E1
2.707725266E0,3.884592354E-1,-3.106476665E-1,1.086608410E1
2.709722557E0,3.836708367E-1,4.848258570E-2,9.582792282E0
2.711719849E0,3.357867897E-1,4.938040972E-1,8.792705536E0
2.713717141E0,2.926911712E-1,4.938040972E-1,8.749609947E0
2.715714432E0,2.352303118E-1,1.634042710E-1,9.170989990E0
2.717711724E0,3.118447661E-1,-4.112041295E-1,1.026274586E1
2.719709016E0,2.831143439E-1,-5.692214370E-1,1.114381218E1
2.721706307E0,1.777694821E-1,-8.080431074E-2,9.994594574E0
2.723703599E0,9.636662155E-2,5.129576921E-1,8.462306023E0
2.725700891E0,6.763619930E-2,3.693056107E-1,8.151060104E0
2.727698182E0,4.848258570E-2,-1.861491799E-1,9.803058624E0
2.729695474E0,1.250970364E-1,1.011550203E-1,1.066018295E1
2.731692766E0,1.250970364E-1,1.538274586E-1,9.894038200E0
2.733690057E0,1.059434265E-1,-2.292448133E-1,1.019570827E1
2.735687349E0,5.805939063E-2,-1.765723825E-1,1.054526138E1
2.737684641E0,2.932897024E-2,1.107318252E-1,9.702502251E0
2.739681932E0,-5.686229095E-2,2.400187254E-1,9.338583946E0
2.741679276E0,-8.080431074E-2,4.219780564E-1,9.223662376E0
2.743676672E0,-8.559270948E-2,5.129576921E-1,9.544485092E0
2.745674068E0,-1.376665942E-2,3.118447661E-1,9.927556992E0
2.747671464E0,-4.189853091E-3,2.064998895E-1,1.041118622E1
2.749668860E0,-8.080431074E-2,4.890156984E-1,1.005205631E1
2.751666255E0,-1.382651478E-1,5.991489887E-1,9.424775124E0
2.753663651E0,-1.765723825E-1,7.811083198E-1,9.166201591E0
2.755661047E0,-1.765723825E-1,8.720879555E-1,9.276334763E0
2.757658443E0,-1.478419602E-1,5.321113467E-1,9.654618263E0
2.759655839E0,-1.813607812E-1,4.938040972E-1,9.846154213E0
2.761653235E0,-1.717839688E-1,6.374561787E-1,9.846154213E0
2.763650630E0,-1.430535465E-1,4.219780564E-1,1.026753426E1
2.765648026E0,-8.559270948E-2,5.752069354E-1,9.568427086E0
2.767645422E0,-1.191115379E-1,6.757634282E-1,9.424775124E0
2.769642766E0,-1.334767491E-1,5.847837925E-1,9.463082314E0
2.771640110E0,-1.238999367E-1,3.932476342E-1,9.879673004E0
2.773637453E0,-4.189853091E-3,3.597288132E-1,1.062666416E1
2.775634797E0,1.975216344E-2,3.932476342E-1,9.989806175E0
2.777632141E0,-2.813187055E-2,5.129576921E-1,9.362525940E0
2.779629485E0,-1.376665942E-2,5.752069354E-1,9.439140320E0
2.781626828E0,5.985504249E-4,5.033808947E-1,9.592369080E0
2.783624172E0,8.200141042E-2,5.464765429E-1,9.817423820E0
2.785621516E0,8.200141042E-2,6.661866307E-1,9.108740807E0
2.787618860E0,4.848258570E-2,6.949170232E-1,8.816647530E0
2.789616203E0,8.200141042E-2,4.602852762E-1,9.506177902E0
2.791613547E0,2.639607489E-1,7.721300423E-2,1.056441498E1
2.793610891E0,3.549404144E-1,4.848258570E-2,1.078946972E1
2.795608235E0,4.219780564E-1,9.157821536E-2,1.026753426E1
2.797605578E0,3.357867897E-1,3.836708367E-1,9.592369080E0
2.799602922E0,2.831143439E-1,5.368997455E-1,9.012971878E0
2.801600266E0,2.783259451E-1,4.124012291E-1,9.142259598E0
2.803597610E0,4.459200799E-1,2.400187254E-1,1.003290176E1
2.805594953E0,4.554968774E-1,-6.165069342E-2,1.073679733E1
2.807592297E0,4.411316514E-1,2.448071241E-1,9.999382973E0
2.809589641E0,3.884592354E-1,4.363432527E-1,9.190143585E0
2.811586985E0,4.124012291E-1,6.901286244E-1,9.348160744E0
2.813584328E0,4.363432527E-1,6.470330358E-1,9.046490669E0
2.815581672E0,3.693056107E-1,5.033808947E-1,9.204508781E0
2.817579068E0,3.645172119E-1,2.495955229E-1,1.015740108E1
2.819576516E0,3.070563674E-1,-2.334346622E-2,1.064581776E1
2.821574016E0,3.645172119E-1,1.825578809E-1,1.016697788E1
2.823571568E0,1.969230920E-1,5.129576921E-1,9.453505516E0
2.825569172E0,2.352303118E-1,6.853402257E-1,9.080010414E0
2.827566776E0,1.346738487E-1,8.242039084E-1,8.902838707E0
2.829564380E0,1.921346933E-1,3.740940094E-1,9.779116631E0
2.831561985E0,1.681926697E-1,1.729810685E-1,1.036809063E1
2.833559589E0,1.729810685E-1,2.926911712E-1,1.078946972E1
2.835557193E0,1.011550203E-1,3.549404144E-1,9.898826599E0
2.837554797E0,-2.334346622E-2,4.028244317E-1,9.170989990E0
2.839552141E0,-6.643909961E-2,6.757634282E-1,9.419986725E0
2.841549432E0,-5.686229095E-2,4.124012291E-1,9.338583946E0
2.843546724E0,3.411737457E-2,1.777694821E-1,1.012867069E1
2.845544016E0,-8.978256024E-3,3.214215636E-1,9.937133789E0
2.847541307E0,-2.334346622E-2,4.602852762E-1,9.352949142E0
2.849538599E0,1.017535757E-2,2.879027426E-1,9.218873978E0
2.851535891E0,5.985504249E-4,3.405751884E-1,9.779116631E0
2.853533182E0,-1.376665942E-2,4.315548539E-1,9.640253067E0
2.855530474E0,-4.189853091E-3,1.442506462E-1,9.898826599E0
2.857527766E0,6.284779310E-2,3.453635871E-1,1.023401546E1
2.859525057E0,5.805939063E-2,4.028244317E-1,9.568427086E0
2.861522401E0,5.386953708E-3,2.208651006E-1,1.011909389E1
2.863519745E0,-1.855506375E-2,4.698620737E-1,9.812635422E0
2.865517089E0,-4.249707982E-2,6.183025837E-1,9.070432663E0
2.867514432E0,-8.559270948E-2,6.661866307E-1,9.175778389E0
2.869511828E0,-1.855506375E-2,3.453635871E-1,9.870096207E0
2.871509224E0,3.890577704E-2,3.022679687E-1,1.014782429E1
2.873506620E0,1.107318252E-1,4.554968774E-1,1.025795746E1
2.875504068E0,2.448071241E-1,4.985924959E-1,1.021486187E1
2.877501568E0,2.017114908E-1,5.560533404E-1,9.300276756E0
2.879499120E0,1.921346933E-1,8.050503135E-1,9.017760277E0
2.881496672E0,2.112883031E-1,7.428010702E-1,9.108740807E0
2.883494224E0,3.214215636E-1,3.166331649E-1,1.024838066E1
2.885491776E0,3.693056107E-1,5.273229480E-1,1.042555141E1
2.887489328E0,3.788824081E-1,6.470330358E-1,9.908403397E0
2.889486880E0,3.740940094E-1,4.219780564E-1,9.534908295E0
2.891484432E0,3.262099922E-1,2.352303118E-1,9.697713852E0
2.893481985E0,3.788824081E-1,4.938040972E-1,1.022922707E1
2.895479537E0,3.405751884E-1,6.039373875E-1,9.635464668E0
2.897477089E0,3.836708367E-1,7.667431235E-1,9.180566788E0
2.899474641E0,4.171896577E-1,6.374561787E-1,9.578003883E0
2.901472193E0,4.124012291E-1,4.363432527E-1,9.927556992E0
2.903469745E0,3.453635871E-1,3.932476342E-1,9.692925453E0
2.905467297E0,3.214215636E-1,4.171896577E-1,9.645041466E0
2.907464849E0,2.831143439E-1,3.645172119E-1,9.630676270E0
2.909462401E0,2.160767019E-1,2.400187254E-1,9.812635422E0
2.911459953E0,2.879027426E-1,2.783259451E-1,9.740809441E0
2.913457505E0,1.873462796E-1,1.011550203E-1,1.012388229E1
2.915455110E0,2.208651006E-1,-6.643909961E-2,1.048301220E1
2.917452714E0,1.921346933E-1,1.107318252E-1,1.058835697E1
2.919450318E0,2.304419130E-1,6.901286244E-1,9.592369080E0
2.921447974E0,6.763619930E-2,6.230909824E-1,8.687360764E0
2.923445630E0,-2.813187055E-2,5.368997455E-1,8.907627106E0
2.925443287E0,-5.686229095E-2,6.613982320E-1,9.448717117E0
2.927440943E0,-5.686229095E-2,7.092822790E-1,9.903614998E0
2.929438599E0,-4.728548229E-2,7.092822790E-1,9.558850288E0
2.931436255E0,-8.978256024E-3,5.512649417E-1,9.975440979E0
2.933433755E0,-8.080431074E-2,3.405751884E-1,1.114860058E1
2.935430891E0,-8.559270948E-2,7.763199210E-1,1.015261269E1
2.937428026E0,-1.238999367E-1,8.625111580E-1,9.238027573E0
2.939425162E0,-1.813607812E-1,7.667431235E-1,9.185355186E0
2.941422297E0,-2.675520480E-1,8.912416101E-1,8.945934296E0
2.943419432E0,-1.909375787E-1,7.954735160E-1,9.333795547E0
2.945416568E0,-1.957259923E-1,6.326677799E-1,9.807847023E0
2.947413703E0,-1.191115379E-1,4.219780564E-1,1.045428181E1
2.949410891E0,-1.095347255E-1,2.495955229E-1,1.106240940E1
2.951408130E0,-5.207388848E-2,6.135141850E-1,1.015740108E1
2.953405422E0,-1.047463268E-1,8.385691643E-1,9.051279068E0
2.955402766E0,-2.005143911E-1,6.566098332E-1,8.907627106E0
2.957400162E0,-2.292448133E-1,5.177460909E-1,9.367314339E0
2.959397610E0,-1.478419602E-1,6.805518270E-1,9.458293915E0
2.961395110E0,-1.855506375E-2,3.118447661E-1,1.031062984E1
2.963392662E0,5.327098817E-2,1.634042710E-1,1.069370174E1
2.965390214E0,5.805939063E-2,5.847837925E-1,9.477447510E0
2.967387766E0,-8.978256024E-3,7.092822790E-1,8.620323181E0
2.969385318E0,1.017535757E-2,4.124012291E-1,8.984241486E0
2.971382870E0,7.721300423E-2,4.171896577E-1,9.333795547E0
2.973380422E0,1.586158574E-1,4.507084787E-1,9.894038200E0
2.975377974E0,2.112883031E-1,2.160767019E-1,9.678560257E0
2.977375526E0,3.309983909E-1,3.890577704E-2,1.052131939E1
2.979373078E0,4.507084787E-1,2.591723204E-1,1.030105305E1
2.981370578E0,4.650736749E-1,2.304419130E-1,1.011430550E1
2.983367870E0,5.368997455E-1,4.459200799E-1,9.233239174E0
2.985365057E0,5.225345492E-1,5.033808947E-1,8.740033150E0
2.987362245E0,5.895721912E-1,1.729810685E-1,9.889249802E0
2.989359432E0,7.428010702E-1,2.495955229E-1,1.004247856E1
2.991356620E0,8.864531517E-1,2.495955229E-1,1.018613148E1
2.993353807E0,8.529343605E-1,7.242459804E-2,1.039203262E1
2.995350995E0,7.571662664E-1,1.729810685E-1,9.860519409E0
2.997348235E0,7.906851172E-1,3.980360329E-1,9.362525940E0
2.999345526E0,8.194155097E-1,4.171896577E-1,9.424775124E0
3.001342870E0,8.242039084E-1,2.400187254E-1,9.822212219E0
3.003340266E0,8.289923668E-1,2.208651006E-1,9.908403397E0
3.005337714E0,8.098387122E-1,3.693056107E-1,9.807847023E0
3.007335214E0,7.667431235E-1,2.448071241E-1,1.009515190E1
3.009332766E0,7.380126715E-1,6.183025837E-1,9.099164009E0
3.011330370E0,6.374561787E-1,4.411316514E-1,9.218873978E0
3.013328026E0,6.087257862E-1,4.267664552E-1,9.439140320E0
3.015325735E0,6.422445774E-1,7.428010702E-1,8.912415504E0
3.017323495E0,4.890156984E-1,2.112883031E-1,9.645041466E0
3.019321307E0,4.507084787E-1,-3.489548862E-1,1.131140614E1
3.021319172E0,5.321113467E-1,2.448071241E-1,1.074158573E1
3.023317037E0,5.273229480E-1,7.284358740E-1,9.898826599E0
3.025314901E0,4.171896577E-1,7.858967185E-1,9.123106003E0
3.027312766E0,1.777694821E-1,5.799953341E-1,9.080010414E0
3.029310578E0,9.636662155E-2,3.980360329E-1,9.831789017E0
3.031307974E0,2.448071241E-1,5.225345492E-1,1.035851383E1
3.033305318E0,2.400187254E-1,8.050503135E-1,9.702502251E0
3.035302662E0,6.284779310E-2,7.236474752E-1,9.487024307E0
3.037300005E0,-2.334346622E-2,7.188590765E-1,9.625887871E0
3.039297349E0,-9.516951442E-2,5.656301379E-1,9.745597839E0
3.041294693E0,-7.601590455E-2,6.087257862E-1,9.827000618E0
3.043292037E0,-1.334767491E-1,5.129576921E-1,9.961075783E0
3.045289432E0,-3.770867735E-2,7.092822790E-1,9.578003883E0
3.047286880E0,-8.559270948E-2,6.613982320E-1,9.458293915E0
3.049284380E0,-1.143231317E-1,4.650736749E-1,9.649829865E0
3.051281932E0,-7.601590455E-2,2.639607489E-1,9.965864182E0
3.053279537E0,2.454056777E-2,4.890156984E-1,9.994594574E0
3.055277193E0,3.890577704E-2,3.693056107E-1,9.965864182E0
3.057274901E0,1.496376097E-2,2.304419130E-1,9.539696693E0
3.059272610E0,4.848258570E-2,1.729810685E-1,9.822212219E0
3.061270318E0,8.678980917E-2,2.160767019E-1,9.597157478E0
3.063268026E0,1.011550203E-1,2.400187254E-1,9.281123161E0
3.065265735E0,1.203086376E-1,2.256535143E-1,9.051279068E0
3.067263287E0,1.681926697E-1,1.634042710E-1,9.391256332E0
3.069260526E0,1.921346933E-1,-4.249707982E-2,9.764751434E0
3.071257610E0,2.448071241E-1,1.825578809E-1,9.793481827E0
3.073254693E0,2.495955229E-1,1.490390599E-1,9.736021042E0
3.075251776E0,1.681926697E-1,-1.095347255E-1,9.908403397E0
3.077248860E0,1.203086376E-1,-3.872621357E-1,1.019091988E1
3.079245995E0,1.969230920E-1,1.203086376E-1,1.015261269E1
3.081243182E0,2.974795699E-1,5.464765429E-1,9.673771858E0
3.083240422E0,2.448071241E-1,1.969230920E-1,9.424775124E0
3.085237714E0,1.011550203E-1,1.155202314E-1,9.625887871E0
3.087235057E0,1.681926697E-1,5.991489887E-1,9.601945877E0
3.089232453E0,1.250970364E-1,4.267664552E-1,9.261969566E0
3.091229901E0,-8.978256024E-3,5.805939063E-2,9.381679535E0
3.093227401E0,5.386953708E-3,6.284779310E-2,1.022443867E1
3.095224953E0,1.442506462E-1,4.267664552E-1,9.961075783E0
3.097222557E0,2.932897024E-2,2.831143439E-1,9.348160744E0
3.099220266E0,-1.382651478E-1,6.284779310E-2,9.429563522E0
3.101218026E0,-4.728548229E-2,3.357867897E-1,1.004726696E1
3.103215839E0,-9.038111567E-2,3.118447661E-1,9.779116631E0
3.105213651E0,-1.622071713E-1,1.442506462E-1,9.932345390E0
3.107211464E0,-1.095347255E-1,2.400187254E-1,1.002332497E1
3.109209068E0,-9.038111567E-2,3.262099922E-1,1.011430550E1
3.111206255E0,-4.728548229E-2,4.554968774E-1,9.683348656E0
3.113203391E0,-1.047463268E-1,3.022679687E-1,9.759963036E0
3.115200526E0,-1.574187577E-1,2.064998895E-1,9.678560257E0
3.117197662E0,-5.686229095E-2,4.076128304E-1,9.850942612E0
3.119194797E0,-5.686229095E-2,3.453635871E-1,9.731232643E0
3.121191985E0,2.454056777E-2,4.459200799E-1,9.530119896E0
3.123189224E0,6.284779310E-2,4.746504724E-1,9.568427086E0
3.125186516E0,4.848258570E-2,4.794389009E-1,9.803058624E0
3.127183860E0,1.017535757E-2,3.836708367E-1,9.702502251E0
3.129181255E0,-2.813187055E-2,3.980360329E-1,9.372102737E0
3.131178703E0,-2.813187055E-2,4.076128304E-1,9.568427086E0
3.133176203E0,-2.813187055E-2,3.645172119E-1,9.740809441E0
3.135173755E0,-5.686229095E-2,2.879027426E-1,9.683348656E0
3.137171360E0,-3.770867735E-2,4.459200799E-1,9.645041466E0
3.139169016E0,-2.334346622E-2,2.974795699E-1,9.755174637E0
3.141166672E0,-3.292027488E-2,2.831143439E-1,9.587580681E0
3.143164328E0,1.975216344E-2,4.363432527E-1,9.463082314E0
3.145161985E0,-8.978256024E-3,4.028244317E-1,9.352949142E0
3.147159432E0,3.411737457E-2,3.501519859E-1,9.477447510E0
3.149156724E0,5.386953708E-3,3.070563674E-1,9.568427086E0
3.151154016E0,-1.855506375E-2,2.831143439E-1,9.683348656E0
3.153151307E0,1.496376097E-2,3.453635871E-1,9.850942612E0
3.155148495E0,-2.813187055E-2,1.394622475E-1,9.683348656E0
3.157145682E0,-7.122749835E-2,1.442506462E-1,9.803058624E0
3.159142870E0,-4.728548229E-2,2.926911712E-1,9.941922188E0
3.161140005E0,-3.770867735E-2,2.735375464E-1,1.012388229E1
3.163137141E0,-6.643909961E-2,2.400187254E-1,9.970652580E0
3.165134276E0,-5.686229095E-2,3.645172119E-1,9.798270226E0
3.167131412E0,-1.855506375E-2,5.991489887E-1,9.453505516E0
3.169128495E0,-1.047463268E-1,5.464765429E-1,9.065644264E0
3.171125578E0,-1.717839688E-1,5.225345492E-1,9.707290649E0
3.173122662E0,-5.207388848E-2,6.183025837E-1,9.640253067E0
3.175119745E0,-2.813187055E-2,3.214215636E-1,9.922768593E0
3.177116828E0,5.386953708E-3,2.974795699E-1,9.827000618E0
3.179113912E0,5.386953708E-3,2.400187254E-1,9.683348656E0
3.181111047E0,2.932897024E-2,3.932476342E-1,9.822212219E0
3.183108235E0,6.763619930E-2,2.400187254E-1,9.755174637E0
3.185105474E0,1.059434265E-1,1.017535757E-2,9.736021042E0
3.187102818E0,7.242459804E-2,1.011550203E-1,1.024359226E1
3.189100266E0,1.442506462E-1,1.634042710E-1,1.013824749E1
3.191097818E0,1.059434265E-1,1.250970364E-1,9.496601105E0
3.193095474E0,8.678980917E-2,1.442506462E-1,9.482235909E0
3.195093182E0,1.059434265E-1,2.974795699E-1,9.889249802E0
3.197090943E0,1.921346933E-1,4.698620737E-1,9.348160744E0
3.199088755E0,1.394622475E-1,2.160767019E-1,9.520543098E0
3.201086568E0,5.805939063E-2,2.352303118E-1,9.975440979E0
3.203084380E0,1.298854351E-1,3.740940094E-1,9.788693428E0
3.205082193E0,6.284779310E-2,1.155202314E-1,9.932345390E0
3.207080005E0,5.805939063E-2,-2.334346622E-2,1.054526138E1
3.209077453E0,1.011550203E-1,4.219780564E-1,1.013345909E1
3.211074901E0,1.107318252E-1,6.518214345E-1,9.788693428E0
3.213072141E0,8.200141042E-2,5.177460909E-1,9.391256332E0
3.215069380E0,-4.728548229E-2,7.475894690E-1,9.324218750E0
3.217066620E0,-5.207388848E-2,8.481459618E-1,9.118317604E0
3.219063860E0,-4.249707982E-2,3.501519859E-1,9.544485092E0
3.221061099E0,-3.770867735E-2,4.315548539E-1,1.005684471E1
3.223058339E0,5.327098817E-2,4.411316514E-1,9.879673004E0
3.225055578E0,8.200141042E-2,9.636662155E-2,1.031541824E1
3.227052818E0,1.969230920E-1,3.740940094E-1,9.338583946E0
3.229050057E0,1.203086376E-1,4.602852762E-1,9.180566788E0
3.231047297E0,8.678980917E-2,4.267664552E-1,9.123106003E0
3.233044537E0,1.155202314E-1,2.926911712E-1,9.606734276E0
3.235041776E0,1.298854351E-1,1.346738487E-1,9.568427086E0
3.237039016E0,1.011550203E-1,1.011550203E-1,9.989806175E0
3.239036255E0,6.763619930E-2,-1.430535465E-1,1.025316906E1
3.241033547E0,8.678980917E-2,3.788824081E-1,9.716867447E0
3.243030891E0,-8.978256024E-3,3.405751884E-1,9.285911560E0
3.245028287E0,-1.095347255E-1,-1.238999367E-1,9.520543098E0
3.247025735E0,-1.191115379E-1,4.369417951E-2,1.023880386E1
3.249023235E0,-4.249707982E-2,2.543839216E-1,1.008557510E1
3.251020787E0,-7.601590455E-2,3.740940094E-1,9.118317604E0
3.253018339E0,-1.861491799E-1,3.980360329E-1,9.017760277E0
3.255015891E0,-2.100912035E-1,4.124012291E-1,9.017760277E0
3.257013443E0,-1.622071713E-1,1.634042710E-1,9.510966301E0
3.259010995E0,-2.813187055E-2,5.985504249E-4,1.043512821E1
3.261008547E0,9.157821536E-2,-2.334346622E-2,1.103846741E1
3.263006099E0,2.454056777E-2,5.985504249E-4,9.850942612E0
3.265003651E0,-5.686229095E-2,4.411316514E-1,8.998606682E0
3.267001203E0,-3.292027488E-2,3.597288132E-1,9.309853554E0
3.268998755E0,-9.995792061E-2,1.873462796E-1,9.439140320E0
3.270996203E0,-4.728548229E-2,3.597288132E-1,9.419986725E0
3.272993599E0,-2.334346622E-2,2.543839216E-1,9.506177902E0
3.274990995E0,1.017535757E-2,1.394622475E-1,9.922768593E0
3.276988391E0,5.327098817E-2,-4.249707982E-2,1.033457184E1
3.278985787E0,1.496376097E-2,1.969230920E-1,1.018134308E1
3.280983182E0,4.848258570E-2,3.309983909E-1,9.889249802E0
3.282980578E0,2.454056777E-2,4.794389009E-1,9.525331497E0
3.284977818E0,7.721300423E-2,3.788824081E-1,9.372102737E0
3.286975057E0,3.890577704E-2,1.777694821E-1,9.927556992E0
3.288972297E0,8.678980917E-2,3.549404144E-1,1.004726696E1
3.290969537E0,1.442506462E-1,5.416881442E-1,9.487024307E0
3.292966776E0,2.591723204E-1,4.842272997E-1,9.750386238E0
3.294964016E0,2.543839216E-1,4.459200799E-1,1.000895977E1
3.296961255E0,2.735375464E-1,3.836708367E-1,9.759963036E0
3.298958547E0,1.825578809E-1,1.975216344E-2,1.069370174E1
3.300955891E0,1.155202314E-1,3.788824081E-1,1.007120991E1
3.302953287E0,9.157821536E-2,7.619546652E-1,9.137471199E0
3.304950787E0,2.932897024E-2,6.613982320E-1,9.180566788E0
3.306948391E0,4.848258570E-2,6.183025837E-1,8.965087891E0
3.308946099E0,-5.207388848E-2,3.549404144E-1,9.654618263E0
3.310943912E0,1.442506462E-1,4.219780564E-1,1.031062984E1
3.312941776E0,1.634042710E-1,4.650736749E-1,1.033457184E1
3.314939693E0,1.490390599E-1,4.842272997E-1,1.014303589E1
3.316937662E0,6.284779310E-2,4.076128304E-1,9.702502251E0
3.318935682E0,5.386953708E-3,2.256535143E-1,1.008078671E1
3.320933703E0,1.975216344E-2,3.932476342E-1,9.956287384E0
3.322931724E0,5.386953708E-3,4.363432527E-1,9.989806175E0
3.324929745E0,5.386953708E-3,6.422445774E-1,8.807070732E0
3.326927349E0,-3.770867735E-2,5.081692934E-1,8.883685112E0
3.328924797E0,-6.643909961E-2,3.214215636E-1,9.635464668E0
3.330922245E0,2.454056777E-2,2.735375464E-1,9.922768593E0
3.332919693E0,2.454056777E-2,1.017535757E-2,1.018134308E1
3.334917141E0,-2.334346622E-2,5.386953708E-3,9.908403397E0
3.336914589E0,-8.978256024E-3,2.064998895E-1,9.750386238E0
3.338912037E0,2.932897024E-2,5.386953708E-3,9.625887871E0
3.340909485E0,-4.728548229E-2,-2.334346622E-2,9.683348656E0
3.342906932E0,-4.189853091E-3,1.011550203E-1,1.007599831E1
3.344904380E0,1.011550203E-1,3.932476342E-1,9.372102737E0
3.346901828E0,1.496376097E-2,1.250970364E-1,9.309853554E0
3.348899276E0,2.454056777E-2,9.636662155E-2,9.290699959E0
3.350896724E0,9.157821536E-2,1.777694821E-1,1.013345909E1
3.352894172E0,1.634042710E-1,1.873462796E-1,1.022922707E1
3.354891620E0,7.242459804E-2,2.304419130E-1,9.716867447E0
3.356889068E0,-4.189853091E-3,-3.106476665E-1,1.015740108E1
3.358886516E0,-5.207388848E-2,-4.249707982E-2,9.496601105E0
3.360883964E0,-8.978256024E-3,8.678980917E-2,9.525331497E0
3.362881412E0,5.805939063E-2,1.777694821E-1,9.568427086E0
3.364878860E0,5.805939063E-2,2.639607489E-1,9.281123161E0
3.366876307E0,1.203086376E-1,-2.627636492E-1,1.066497135E1
3.368873755E0,1.921346933E-1,-3.010708690E-1,1.064102936E1
3.370871203E0,1.921346933E-1,2.112883031E-1,9.285911560E0
3.372868651E0,1.921346933E-1,2.160767019E-1,9.448717117E0
3.374866099E0,7.721300423E-2,3.884592354E-1,9.290699959E0
3.376863547E0,-4.189853091E-3,2.687491477E-1,9.640253067E0
3.378860995E0,3.411737457E-2,-3.292027488E-2,9.951498985E0
3.380858443E0,1.017535757E-2,1.059434265E-1,9.970652580E0
3.382855891E0,1.975216344E-2,1.586158574E-1,1.006163311E1
3.384853339E0,1.059434265E-1,2.400187254E-1,1.026753426E1
3.386850787E0,3.890577704E-2,6.853402257E-1,8.773551941E0
3.388848235E0,-7.122749835E-2,3.836708367E-1,9.218873978E0
3.390845526E0,-1.143231317E-1,5.805939063E-2,1.021007347E1
3.392842766E0,-9.516951442E-2,3.118447661E-1,1.005205631E1
3.394840005E0,-1.286883354E-1,3.357867897E-1,9.467870712E0
3.396837245E0,-9.516951442E-2,5.847837925E-1,9.573215485E0
3.398834485E0,-1.765723825E-1,5.656301379E-1,9.099164009E0
3.400831724E0,-2.148796022E-1,-2.813187055E-2,1.024359226E1
3.402828964E0,-2.148796022E-1,1.298854351E-1,1.032020664E1
3.404826203E0,-2.483984232E-1,4.076128304E-1,9.448717117E0
3.406823495E0,-4.016273320E-1,2.352303118E-1,9.123106003E0
3.408820787E0,-4.686649740E-1,2.932897024E-2,1.002811337E1
3.410818130E0,-3.728969097E-1,-3.292027488E-2,1.056920338E1
3.412815526E0,-3.441664875E-1,2.926911712E-1,9.659406662E0
3.414812974E0,-4.064157307E-1,3.788824081E-1,9.132682800E0
3.416810474E0,-4.447229803E-1,1.777694821E-1,9.578003883E0
3.418807974E0,-3.872621357E-1,3.836708367E-1,9.405621529E0
3.420805526E0,-2.867056429E-1,2.495955229E-1,9.443928719E0
3.422803078E0,-3.202244639E-1,-9.038111567E-2,1.047822380E1
3.424800630E0,-1.526303589E-1,-4.728548229E-2,1.029147625E1
3.426798235E0,-2.436100245E-1,4.369417951E-2,1.004726696E1
3.428795839E0,2.454056777E-2,1.873462796E-1,9.889249802E0
3.430793443E0,-2.005143911E-1,4.985924959E-1,8.447940826E0
3.432791047E0,-2.148796022E-1,9.636662155E-2,9.185355186E0
3.434788651E0,-1.957259923E-1,3.214215636E-1,9.132682800E0
3.436786255E0,-2.244564146E-1,1.969230920E-1,9.970652580E0
3.438783860E0,-1.957259923E-1,1.681926697E-1,1.012388229E1
3.440781464E0,-1.909375787E-1,6.763619930E-2,9.850942612E0
3.442779016E0,-2.627636492E-1,-2.388216257E-1,1.068891335E1
3.444776255E0,-2.244564146E-1,-1.286883354E-1,1.032020664E1
3.446773495E0,-2.962824702E-1,2.639607489E-1,9.415198326E0
3.448770735E0,-3.298012912E-1,4.363432527E-1,8.902838707E0
3.450767974E0,-2.675520480E-1,-2.292448133E-1,9.281123161E0
3.452765214E0,-2.292448133E-1,-3.537433147E-1,1.010472870E1
3.454762453E0,-1.430535465E-1,3.262099922E-1,9.515754700E0
3.456759693E0,-5.686229095E-2,1.250970364E-1,9.956287384E0
3.458756932E0,5.985504249E-4,-3.345896900E-1,1.041118622E1
3.460754224E0,-9.516951442E-2,2.783259451E-1,9.453505516E0
3.462751516E0,-5.686229095E-2,3.836708367E-1,9.295488358E0
3.464748807E0,-1.669955701E-1,2.879027426E-1,8.854954720E0
3.466746099E0,-2.100912035E-1,1.107318252E-1,9.434351921E0
3.468743391E0,-1.669955701E-1,1.538274586E-1,1.042076302E1
3.470740682E0,-5.207388848E-2,4.267664552E-1,9.951498985E0
3.472737974E0,-3.770867735E-2,3.214215636E-1,9.640253067E0
3.474735318E0,-1.574187577E-1,3.932476342E-1,9.391256332E0
3.476732714E0,-1.430535465E-1,4.315548539E-1,9.367314339E0
3.478730110E0,5.985504249E-4,-2.334346622E-2,1.116296577E1
3.480727505E0,1.059434265E-1,-4.189853091E-3,1.107198620E1
3.482724901E0,-1.376665942E-2,-2.334346622E-2,9.472659111E0
3.484722297E0,-1.478419602E-1,6.997054219E-1,8.467094421E0
3.486719693E0,-1.334767491E-1,6.949170232E-1,8.931569099E0
3.488717089E0,3.890577704E-2,2.879027426E-1,9.568427086E0
3.490714537E0,1.059434265E-1,2.783259451E-1,1.020049667E1
3.492712037E0,1.825578809E-1,1.107318252E-1,1.025316906E1
3.494709589E0,2.017114908E-1,-1.334767491E-1,1.076552773E1
3.496707193E0,7.721300423E-2,1.825578809E-1,9.649829865E0
3.498704849E0,3.890577704E-2,3.405751884E-1,8.577227592E0
3.500702557E0,-6.165069342E-2,2.926911712E-1,8.898050308E0
3.502700266E0,-4.189853091E-3,-1.813607812E-1,1.017655468E1
3.504697974E0,-8.080431074E-2,-5.787982345E-1,1.050216579E1
3.506695682E0,5.386953708E-3,-5.117605925E-1,1.051653099E1
3.508693391E0,-1.143231317E-1,1.155202314E-1,8.840589523E0
3.510690839E0,-3.770867735E-2,-3.633201122E-1,9.352949142E0
3.512688287E0,1.017535757E-2,-6.554127336E-1,1.014782429E1
3.514685735E0,6.284779310E-2,-2.388216257E-1,9.970652580E0
3.516683182E0,1.250970364E-1,-2.579752207E-1,1.003769016E1
3.518680630E0,1.017535757E-2,-2.627636492E-1,9.975440979E0
3.520678078E0,-9.038111567E-2,-2.723404467E-1,1.013824749E1
3.522675526E0,-9.038111567E-2,-2.914940715E-1,9.510966301E0
3.524672818E0,-1.095347255E-1,-2.148796022E-1,9.860519409E0
3.526670110E0,-9.995792061E-2,1.298854351E-1,8.677783966E0
3.528667401E0,-1.430535465E-1,2.831143439E-1,8.548497200E0
3.530664693E0,5.386953708E-3,-2.292448133E-1,9.506177902E0
3.532661985E0,-1.376665942E-2,-2.388216257E-1,1.066975975E1
3.534659276E0,1.975216344E-2,-2.148796022E-1,1.037287903E1
3.536656568E0,6.284779310E-2,-1.191115379E-1,9.774328232E0
3.538653860E0,4.369417951E-2,-1.376665942E-2,9.257181168E0
3.540651151E0,2.932897024E-2,-1.334767491E-1,9.419986725E0
3.542648495E0,-3.292027488E-2,-3.585317135E-1,9.855731010E0
3.544645891E0,3.411737457E-2,-8.325836658E-1,1.088044930E1
3.546643339E0,2.352303118E-1,-5.548562407E-1,1.060272217E1
3.548640787E0,2.160767019E-1,1.975216344E-2,9.022548676E0
3.550638235E0,1.586158574E-1,2.932897024E-2,8.572439194E0
3.552635682E0,2.735375464E-1,-1.574187577E-1,9.137471199E0
3.554633130E0,2.591723204E-1,-2.819172442E-1,9.850942612E0
3.556630578E0,2.448071241E-1,-3.537433147E-1,1.000895977E1
3.558628026E0,2.879027426E-1,-2.867056429E-1,9.884461403E0
3.560625474E0,2.879027426E-1,-3.154360652E-1,9.846154213E0
3.562622922E0,2.543839216E-1,-1.909375787E-1,9.496601105E0
3.564620370E0,2.687491477E-1,-3.770867735E-2,9.467870712E0
3.566617818E0,2.783259451E-1,-1.717839688E-1,9.879673004E0
3.568615266E0,3.214215636E-1,-1.143231317E-1,9.798270226E0
3.570612766E0,2.400187254E-1,-4.255693555E-1,1.023880386E1
3.572610318E0,3.453635871E-1,-3.681085110E-1,1.013824749E1
3.574607870E0,3.693056107E-1,4.369417951E-2,9.769539833E0
3.576605422E0,2.783259451E-1,5.608417392E-1,8.912415504E0
3.578602974E0,3.214215636E-1,3.405751884E-1,9.075222015E0
3.580600526E0,2.831143439E-1,-2.005143911E-1,1.030584145E1
3.582597922E0,2.926911712E-1,-2.340332121E-1,1.077989292E1
3.584595162E0,2.112883031E-1,4.369417951E-2,9.956287384E0
3.586592349E0,1.298854351E-1,1.250970364E-1,9.525331497E0
3.588589537E0,7.242459804E-2,3.309983909E-1,8.811859131E0
3.590586724E0,1.011550203E-1,-2.813187055E-2,9.846154213E0
3.592583912E0,6.763619930E-2,-8.978256024E-3,9.841365814E0
3.594581099E0,9.157821536E-2,-1.813607812E-1,9.716867447E0
3.596578287E0,1.969230920E-1,-4.303577542E-1,1.006163311E1
3.598575474E0,1.586158574E-1,-2.819172442E-1,9.817423820E0
3.600572662E0,1.586158574E-1,-2.053027898E-1,9.285911560E0
3.602569849E0,1.825578809E-1,-1.909375787E-1,9.103952408E0
3.604567037E0,1.059434265E-1,-2.340332121E-1,9.142259598E0
3.606564224E0,1.250970364E-1,-6.554127336E-1,1.017176628E1
3.608561412E0,7.242459804E-2,-1.004966140E0,1.098100567E1
3.610558651E0,2.454056777E-2,-8.373720646E-1,1.038724422E1
3.612555943E0,-1.855506375E-2,-5.309142470E-1,9.874884605E0
3.614553287E0,3.411737457E-2,-1.957259923E-1,9.017760277E0
3.616550682E0,-2.334346622E-2,-2.819172442E-1,9.386467934E0
3.618548130E0,3.411737457E-2,-4.638765752E-1,9.496601105E0
3.620545630E0,-4.249707982E-2,-5.883750916E-1,9.582792282E0
3.622543182E0,-4.728548229E-2,-3.154360652E-1,9.352949142E0
3.624540787E0,-1.855506375E-2,-1.717839688E-1,9.123106003E0
3.626538443E0,1.059434265E-1,-3.681085110E-1,9.716867447E0
3.628536151E0,1.538274586E-1,-6.075286865E-1,1.030584145E1
3.630533860E0,6.763619930E-2,-3.106476665E-1,9.917980194E0
3.632531568E0,8.678980917E-2,-4.303577542E-1,9.951498985E0
3.634529276E0,1.107318252E-1,-4.878185987E-1,1.005205631E1
3.636526985E0,1.203086376E-1,-4.159925580E-1,9.850942612E0
3.638524693E0,6.763619930E-2,-3.298012912E-1,9.544485092E0
3.640522401E0,-1.855506375E-2,-1.717839688E-1,9.501389503E0
3.642519953E0,-9.038111567E-2,-1.334767491E-1,9.046490669E0
3.644517505E0,-1.376665942E-2,-3.872621357E-1,9.582792282E0
3.646515057E0,-4.189853091E-3,-4.399345517E-1,1.000895977E1
3.648512610E0,4.369417951E-2,-4.830302000E-1,1.032499504E1
3.650510162E0,2.932897024E-2,-1.238999367E-1,9.482235909E0
3.652507505E0,-8.978256024E-3,-2.819172442E-1,9.769539833E0
3.654504797E0,8.200141042E-2,-4.112041295E-1,9.932345390E0
3.656502089E0,1.107318252E-1,-4.734533727E-1,1.033936024E1
3.658499380E0,9.157821536E-2,-2.436100245E-1,9.554061890E0
3.660496672E0,1.442506462E-1,-1.717839688E-1,9.305065155E0
3.662493964E0,1.298854351E-1,-5.500678420E-1,1.010951710E1
3.664491255E0,-4.189853091E-3,-6.649895310E-1,1.062666416E1
3.666488547E0,-2.334346622E-2,2.017114908E-1,8.859743118E0
3.668485839E0,-2.813187055E-2,4.890156984E-1,8.194155693E0
3.670483130E0,-8.978256024E-3,-1.095347255E-1,9.367314339E0
3.672480422E0,4.848258570E-2,-5.548562407E-1,1.036330223E1
3.674477714E0,1.059434265E-1,-4.542997777E-1,1.021965027E1
3.676475005E0,1.346738487E-1,-1.382651478E-1,9.673771858E0
3.678472297E0,1.250970364E-1,-2.196680009E-1,1.006163311E1
3.680469589E0,1.825578809E-1,-1.717839688E-1,9.654618263E0
3.682466880E0,1.490390599E-1,-2.483984232E-1,9.491812706E0
3.684464224E0,4.848258570E-2,-1.765723825E-1,9.429563522E0
3.686461568E0,1.155202314E-1,-1.286883354E-1,9.731232643E0
3.688458912E0,1.155202314E-1,-2.531868219E-1,1.019091988E1
3.690456255E0,1.777694821E-1,-3.298012912E-1,1.041597462E1
3.692453599E0,1.634042710E-1,-8.559270948E-2,9.678560257E0
3.694450943E0,1.298854351E-1,-2.914940715E-1,9.999382973E0
3.696448287E0,1.203086376E-1,-4.973953962E-1,9.673771858E0
3.698445630E0,4.848258570E-2,-2.675520480E-1,9.396044731E0
3.700442974E0,5.327098817E-2,1.107318252E-1,9.075222015E0
3.702440318E0,1.490390599E-1,-3.585317135E-1,9.898826599E0
3.704437505E0,1.873462796E-1,-5.357026458E-1,1.000417137E1
3.706434693E0,1.586158574E-1,-2.531868219E-1,9.300276756E0
3.708431880E0,7.242459804E-2,-1.861491799E-1,9.352949142E0
3.710429068E0,5.985504249E-4,-2.675520480E-1,9.683348656E0
3.712426255E0,-6.165069342E-2,-5.021837950E-1,9.831789017E0
3.714423495E0,-3.292027488E-2,-5.309142470E-1,1.051653099E1
3.716420787E0,5.386953708E-3,-3.728969097E-1,1.039682102E1
3.718418130E0,-4.189853091E-3,-9.038111567E-2,9.434351921E0
3.720415526E0,-8.559270948E-2,8.200141042E-2,8.687360764E0
3.722412974E0,-1.478419602E-1,1.298854351E-1,8.720879555E0
3.724410526E0,-5.686229095E-2,-4.255693555E-1,1.044949341E1
3.726408130E0,9.157821536E-2,-7.463923693E-1,1.095227528E1
3.728405787E0,2.454056777E-2,-2.340332121E-1,9.592369080E0
3.730403495E0,-4.189853091E-3,-9.516951442E-2,8.989029884E0
3.732401255E0,-1.855506375E-2,-3.010708690E-1,9.429563522E0
3.734399016E0,-8.080431074E-2,-2.675520480E-1,9.951498985E0
3.736396776E0,1.155202314E-1,-2.196680009E-1,1.007120991E1
3.738394537E0,9.157821536E-2,-1.238999367E-1,9.779116631E0
3.740392037E0,1.017535757E-2,-2.340332121E-1,1.013824749E1
3.742389328E0,-1.855506375E-2,-4.728548229E-2,9.534908295E0
3.744386620E0,2.932897024E-2,-7.601590455E-2,9.056067467E0
3.746383807E0,4.848258570E-2,-1.478419602E-1,9.736021042E0
3.748380995E0,9.636662155E-2,-2.148796022E-1,1.014782429E1
3.750378182E0,1.298854351E-1,-1.526303589E-1,9.937133789E0
3.752375370E0,8.678980917E-2,1.975216344E-2,9.510966301E0
3.754372557E0,8.200141042E-2,-1.286883354E-1,9.812635422E0
3.756369745E0,1.107318252E-1,-2.483984232E-1,1.007599831E1
3.758366932E0,2.454056777E-2,-1.526303589E-1,9.764751434E0
3.760364120E0,9.157821536E-2,-8.080431074E-2,9.544485092E0
3.762361307E0,-8.080431074E-2,2.454056777E-2,9.419986725E0
3.764358495E0,-1.376665942E-2,-2.867056429E-1,9.745597839E0
3.766355735E0,4.848258570E-2,-2.483984232E-1,9.846154213E0
3.768353026E0,1.490390599E-1,1.975216344E-2,9.228450775E0
3.770350370E0,1.538274586E-1,-9.038111567E-2,9.381679535E0
3.772347766E0,1.155202314E-1,-3.489548862E-1,1.038724422E1
3.774345162E0,1.011550203E-1,-5.165489912E-1,1.051653099E1
3.776342557E0,3.890577704E-2,-3.250128925E-1,9.692925453E0
3.778339953E0,5.386953708E-3,-2.627636492E-1,9.391256332E0
3.780337349E0,-3.292027488E-2,-3.920505345E-1,9.683348656E0
3.782334745E0,3.411737457E-2,-2.723404467E-1,9.697713852E0
3.784332193E0,1.873462796E-1,-1.861491799E-1,9.793481827E0
3.786329693E0,1.921346933E-1,-2.771288455E-1,1.015261269E1
3.788327245E0,1.250970364E-1,-1.957259923E-1,9.683348656E0
3.790324849E0,8.200141042E-2,-7.122749835E-2,9.396044731E0
3.792322453E0,6.763619930E-2,-1.047463268E-1,9.487024307E0
3.794320057E0,1.017535757E-2,-9.516951442E-2,9.582792282E0
3.796317662E0,5.805939063E-2,6.284779310E-2,9.242815971E0
3.798315214E0,-8.978256024E-3,-1.143231317E-1,9.482235909E0
3.800312401E0,-1.376665942E-2,-3.154360652E-1,1.003769016E1
3.802309589E0,4.369417951E-2,-3.681085110E-1,1.003290176E1
3.804306776E0,2.454056777E-2,-4.112041295E-1,1.001853657E1
3.806303964E0,7.721300423E-2,-4.495113790E-1,1.008078671E1
3.808301151E0,1.346738487E-1,-2.531868219E-1,9.956287384E0
3.810298339E0,1.107318252E-1,-6.643909961E-2,9.491812706E0
3.812295526E0,7.721300423E-2,-8.559270948E-2,9.223662376E0
3.814292714E0,-1.855506375E-2,1.017535757E-2,8.941145897E0
3.816289901E0,5.985504249E-4,-3.770867735E-2,9.348160744E0
3.818287089E0,4.369417951E-2,-3.010708690E-1,1.049258900E1
3.820284276E0,2.454056777E-2,-2.244564146E-1,1.071285534E1
3.822281464E0,5.985504249E-4,7.721300423E-2,9.697713852E0
3.824278651E0,-5.207388848E-2,3.890577704E-2,9.204508781E0
3.826275839E0,-9.516951442E-2,4.848258570E-2,9.228450775E0
3.828273078E0,-1.382651478E-1,-2.334346622E-2,9.649829865E0
3.830270370E0,-1.430535465E-1,5.327098817E-2,9.798270226E0
3.832267714E0,-1.478419602E-1,-8.559270948E-2,9.975440979E0
3.834265110E0,-7.601590455E-2,-1.574187577E-1,1.017655468E1
3.836262505E0,-1.376665942E-2,1.442506462E-1,9.965864182E0
3.838259953E0,-4.728548229E-2,2.639607489E-1,9.190143585E0
3.840257401E0,-1.286883354E-1,-3.292027488E-2,9.123106003E0
3.842254901E0,-5.686229095E-2,-1.765723825E-1,1.023401546E1
3.844252453E0,-1.238999367E-1,1.203086376E-1,1.030584145E1
3.846250057E0,-4.728548229E-2,-1.238999367E-1,1.031541824E1
3.848247714E0,-1.376665942E-2,-2.819172442E-1,9.956287384E0
3.850245370E0,-5.686229095E-2,-2.334346622E-2,9.075222015E0
3.852243026E0,-1.574187577E-1,3.214215636E-1,8.696937561E0
3.854240682E0,-3.292027488E-2,2.454056777E-2,9.329007149E0
3.856238339E0,2.454056777E-2,-3.393780887E-1,1.000895977E1
3.858235995E0,-4.728548229E-2,-1.622071713E-1,9.654618263E0
3.860233599E0,-8.559270948E-2,-2.196680009E-1,9.922768593E0
3.862230839E0,5.327098817E-2,-4.686649740E-1,1.033457184E1
3.864228078E0,1.975216344E-2,-3.441664875E-1,1.008557510E1
3.866225318E0,-1.376665942E-2,-1.717839688E-1,9.726444244E0
3.868222557E0,-5.686229095E-2,-1.957259923E-1,9.664195061E0
3.870219797E0,-3.292027488E-2,-1.574187577E-1,9.616311073E0
3.872217037E0,-1.855506375E-2,-1.143231317E-1,9.424775124E0
3.874214276E0,-7.122749835E-2,-3.298012912E-1,9.774328232E0
3.876211516E0,-1.047463268E-1,-1.047463268E-1,9.496601105E0
3.878208755E0,-7.122749835E-2,-2.244564146E-1,9.496601105E0
3.880206047E0,-1.382651478E-1,-2.005143911E-1,9.506177902E0
3.882203391E0,-2.813187055E-2,-2.005143911E-1,9.798270226E0
3.884200787E0,-2.813187055E-2,-1.909375787E-1,1.010472870E1
3.886198235E0,-6.165069342E-2,1.017535757E-2,9.736021042E0
3.888195682E0,-7.601590455E-2,-4.189853091E-3,9.386467934E0
3.890193130E0,-5.686229095E-2,-1.382651478E-1,9.807847023E0
3.892190578E0,-6.643909961E-2,6.284779310E-2,9.913191795E0
3.894188026E0,-5.207388848E-2,2.112883031E-1,9.726444244E0
3.896185474E0,-5.207388848E-2,-3.292027488E-2,9.707290649E0
3.898182922E0,-2.334346622E-2,-1.909375787E-1,1.017655468E1
3.900180370E0,5.386953708E-3,-1.238999367E-1,1.036330223E1
3.902177818E0,-1.286883354E-1,1.059434265E-1,9.597157478E0
3.904175266E0,-1.526303589E-1,2.448071241E-1,9.142259598E0
3.906172714E0,-5.207388848E-2,8.678980917E-2,9.415198326E0
3.908170162E0,-5.686229095E-2,-8.559270948E-2,9.745597839E0
3.910167610E0,-2.813187055E-2,-5.686229095E-2,1.000417137E1
3.912165057E0,-9.516951442E-2,5.327098817E-2,9.702502251E0
3.914162505E0,-7.122749835E-2,-7.122749835E-2,9.678560257E0
3.916159953E0,-6.643909961E-2,-3.298012912E-1,9.937133789E0
3.918157401E0,-1.382651478E-1,-1.143231317E-1,9.668983459E0
3.920154849E0,-1.430535465E-1,5.386953708E-3,9.549273491E0
3.922152245E0,-5.686229095E-2,-3.770867735E-2,9.783905029E0
3.924149485E0,-3.292027488E-2,-2.436100245E-1,1.021965027E1
3.926146724E0,-1.334767491E-1,-7.601590455E-2,9.932345390E0
3.928143964E0,-2.053027898E-1,2.879027426E-1,9.242815971E0
3.930141203E0,-1.957259923E-1,9.157821536E-2,9.027337074E0
3.932138443E0,-1.430535465E-1,-1.669955701E-1,9.616311073E0
3.934135682E0,-1.574187577E-1,-2.334346622E-2,9.827000618E0
3.936132922E0,-7.122749835E-2,3.890577704E-2,9.731232643E0
3.938130162E0,-9.516951442E-2,-2.723404467E-1,9.692925453E0
3.940127401E0,-8.080431074E-2,-3.202244639E-1,9.889249802E0
3.942124641E0,-1.047463268E-1,-5.207388848E-2,9.798270226E0
3.944121880E0,-5.207388848E-2,5.386953708E-3,9.194931984E0
3.946119120E0,-8.978256024E-3,1.011550203E-1,9.080010414E0
3.948116360E0,5.386953708E-3,2.932897024E-2,9.391256332E0
3.950113599E0,6.284779310E-2,-2.292448133E-1,1.011909389E1
3.952110839E0,6.284779310E-2,-3.345896900E-1,1.043991661E1
3.954108130E0,1.975216344E-2,-3.010708690E-1,1.042555141E1
3.956105474E0,5.805939063E-2,-5.117605925E-1,1.037287903E1
3.958102870E0,2.454056777E-2,-4.064157307E-1,1.010951710E1
3.960100266E0,-3.770867735E-2,-4.189853091E-3,9.487024307E0
3.962097662E0,-5.686229095E-2,-2.813187055E-2,8.921992302E0
3.964095057E0,2.932897024E-2,-3.202244639E-1,9.367314339E0
3.966092453E0,6.284779310E-2,-2.627636492E-1,9.965864182E0
3.968089849E0,1.059434265E-1,-3.106476665E-1,1.006163311E1
3.970087245E0,1.203086376E-1,-4.399345517E-1,9.894038200E0
3.972084641E0,1.777694821E-1,-2.483984232E-1,1.001853657E1
3.974082037E0,4.848258570E-2,-5.207388848E-2,9.645041466E0
3.976079432E0,2.932897024E-2,9.636662155E-2,9.103952408E0
3.978076828E0,8.678980917E-2,1.107318252E-1,9.252392769E0
3.980074224E0,1.059434265E-1,-9.038111567E-2,9.659406662E0
3.982071620E0,1.586158574E-1,-2.292448133E-1,1.034414864E1
3.984069016E0,1.538274586E-1,-1.855506375E-2,1.059793377E1
3.986066412E0,1.729810685E-1,1.394622475E-1,1.008557510E1
3.988063807E0,1.059434265E-1,2.304419130E-1,9.233239174E0
3.990061203E0,-3.292027488E-2,2.591723204E-1,9.151836395E0
3.992058599E0,-5.686229095E-2,3.884592354E-1,9.372102737E0
3.994055995E0,-4.728548229E-2,9.157821536E-2,9.759963036E0
3.996053391E0,-4.189853091E-3,-3.292027488E-2,1.012388229E1
3.998050787E0,8.678980917E-2,3.890577704E-2,1.023401546E1
4.000048235E0,8.200141042E-2,7.242459804E-2,9.721655846E0
4.002045735E0,5.386953708E-3,1.634042710E-1,9.357737541E0
4.004043235E0,-5.207388848E-2,3.597288132E-1,9.113529205E0
4.006040735E0,-6.643909961E-2,2.639607489E-1,9.113529205E0
4.008038287E0,-3.292027488E-2,-1.861491799E-1,1.001853657E1
4.010035839E0,-4.189853091E-3,-1.669955701E-1,1.016697788E1
4.012033391E0,-4.249707982E-2,-4.189853091E-3,9.927556992E0
4.014030943E0,-1.238999367E-1,5.327098817E-2,9.467870712E0
4.016028547E0,4.369417951E-2,-1.574187577E-1,9.506177902E0
4.018026151E0,1.346738487E-1,-5.261258483E-1,1.032020664E1
4.020023755E0,1.442506462E-1,-3.776853085E-1,1.035372543E1
4.022021360E0,9.157821536E-2,-1.909375787E-1,9.865307808E0
4.024018964E0,1.011550203E-1,-4.728548229E-2,9.194931984E0
4.026016568E0,9.157821536E-2,-4.728548229E-2,9.400833130E0
4.028014172E0,1.394622475E-1,-1.813607812E-1,9.874884605E0
4.030011776E0,1.873462796E-1,-2.771288455E-1,1.023401546E1
4.032009380E0,1.346738487E-1,-7.601590455E-2,1.000417137E1
4.034006985E0,2.454056777E-2,9.636662155E-2,9.367314339E0
4.036004589E0,-8.978256024E-3,-2.334346622E-2,9.381679535E0
4.038002193E0,2.454056777E-2,-9.038111567E-2,9.951498985E0
4.039999693E0,2.932897024E-2,1.681926697E-1,1.007599831E1
4.041997193E0,4.848258570E-2,2.017114908E-1,9.534908295E0
4.043994693E0,2.932897024E-2,5.805939063E-2,9.367314339E0
4.045992193E0,2.932897024E-2,2.879027426E-1,9.807847023E0
4.047989693E0,9.636662155E-2,1.681926697E-1,9.803058624E0
4.049987193E0,1.155202314E-1,3.411737457E-2,9.788693428E0
4.051984589E0,5.327098817E-2,1.394622475E-1,9.932345390E0
4.053981985E0,5.386953708E-3,1.634042710E-1,9.587580681E0
4.055979380E0,-3.292027488E-2,6.763619930E-2,9.554061890E0
4.057976776E0,1.496376097E-2,5.985504249E-4,9.932345390E0
4.059974172E0,1.011550203E-1,6.763619930E-2,9.783905029E0
4.061971568E0,3.411737457E-2,1.490390599E-1,9.175778389E0
4.063968964E0,8.678980917E-2,8.678980917E-2,9.238027573E0
4.065966360E0,1.634042710E-1,-1.574187577E-1,1.003769016E1
4.067963755E0,1.586158574E-1,-1.957259923E-1,1.012388229E1
4.069961151E0,1.107318252E-1,-4.728548229E-2,9.520543098E0
4.071958547E0,1.250970364E-1,-1.095347255E-1,9.750386238E0
4.073955943E0,9.157821536E-2,-2.005143911E-1,1.012867069E1
4.075953339E0,1.107318252E-1,-3.770867735E-2,9.855731010E0
4.077950735E0,1.496376097E-2,1.011550203E-1,9.242815971E0
