"Time (s)","Acceleration x (m/s^2)","Acceleration y (m/s^2)","Acceleration z (m/s^2)"
2.163745700E-2,3.884592354E-1,1.590348482E0,1.013824749E1
2.363745700E-2,3.357867897E-1,1.686116576E0,1.022443867E1
2.518615500E-2,3.118447661E-1,1.805826664E0,1.031541824E1
2.715136300E-2,3.118447661E-1,1.930325150E0,1.045428181E1
2.907917600E-2,2.926911712E-1,2.054823637E0,1.049737740E1
3.055438400E-2,2.974795699E-1,2.231994629E0,1.039203262E1
3.251959200E-2,2.687491477E-1,2.260725021E0,1.028189945E1
3.448480100E-2,2.160767019E-1,2.289455414E0,1.044470501E1
3.645000900E-2,2.495955229E-1,2.428318977E0,1.045907021E1
3.841521700E-2,3.118447661E-1,2.447472572E0,1.040160942E1
4.038042600E-2,3.309983909E-1,2.375646591E0,1.044949341E1
4.234563400E-2,3.740940094E-1,2.423530579E0,1.060272217E1
4.431084200E-2,4.507084787E-1,2.567182779E0,1.055962658E1
4.627605100E-2,4.842272997E-1,2.538452387E0,1.065539455E1
4.824125900E-2,4.794389009E-1,2.509721994E0,1.064581776E1
5.020646700E-2,4.842272997E-1,2.600701571E0,1.055483818E1
5.217167600E-2,4.459200799E-1,2.615066767E0,1.049737740E1
5.413688400E-2,4.746504724E-1,2.600701571E0,1.040639782E1
5.610209200E-2,4.650736749E-1,2.576759577E0,1.042076302E1
5.806730100E-2,3.980360329E-1,2.610278368E0,1.039682102E1
6.003250900E-2,4.411316514E-1,2.710834980E0,1.023880386E1
6.199771700E-2,4.459200799E-1,2.749142170E0,1.018134308E1
6.396292600E-2,4.124012291E-1,2.749142170E0,9.961075783E0
6.592813400E-2,3.549404144E-1,2.552817583E0,1.018613148E1
6.789334200E-2,4.507084787E-1,2.715623379E0,1.036809063E1
6.985855100E-2,4.507084787E-1,2.830544949E0,1.011909389E1
7.182375900E-2,3.214215636E-1,2.763507366E0,9.946710587E0
7.378896700E-2,3.214215636E-1,2.787449360E0,9.917980194E0
7.575417600E-2,3.070563674E-1,2.816179752E0,9.740809441E0
7.771938400E-2,3.645172119E-1,2.811391354E0,9.774328232E0
7.968459200E-2,3.262099922E-1,2.662950754E0,9.855731010E0
8.164980100E-2,2.591723204E-1,2.610278368E0,9.874884605E0
8.361500900E-2,3.453635871E-1,2.672527552E0,9.879673004E0
8.558042600E-2,4.028244317E-1,2.686892748E0,1.008557510E1
8.754735300E-2,4.650736749E-1,2.959831953E0,9.798270226E0
8.951698800E-2,3.884592354E-1,2.667739153E0,9.477447510E0
9.149037400E-2,3.357867897E-1,2.619855165E0,9.568427086E0
9.346834200E-2,4.794389009E-1,2.911947727E0,9.587580681E0
9.545151900E-2,5.225345492E-1,2.840121746E0,9.271546364E0
9.744026900E-2,5.321113467E-1,2.581547976E0,9.831789017E0
9.943474900E-2,5.368997455E-1,2.413953781E0,1.030105305E1
1.014348530E-1,4.842272997E-1,2.514510393E0,9.597157478E0
1.034403210E-1,4.985924959E-1,2.610278368E0,9.448717117E0
1.054506340E-1,5.368997455E-1,2.720411777E0,9.214085579E0
1.074651130E-1,4.602852762E-1,2.423530579E0,9.443928719E0
1.094829260E-1,5.129576921E-1,2.404376984E0,9.755174637E0
1.115031860E-1,5.847837925E-1,2.682104349E0,9.865307808E0
1.135249050E-1,5.943605900E-1,2.667739153E0,9.410409927E0
1.155470920E-1,5.129576921E-1,2.399588585E0,1.011430550E1
1.175567280E-1,4.459200799E-1,2.715623379E0,9.352949142E0
1.195548010E-1,3.405751884E-1,3.654150248E0,7.413645744E0
1.215528740E-1,2.256535143E-1,1.829768658E0,9.831789017E0
1.235509460E-1,1.011550203E-1,1.671751380E0,1.095706367E1
1.255490190E-1,5.368997455E-1,3.414730072E0,9.884461403E0
1.275470920E-1,5.895721912E-1,3.342904091E0,9.300276756E0
1.295451650E-1,3.693056107E-1,2.576759577E0,9.357737541E0
1.315432380E-1,1.203086376E-1,2.548029184E0,9.534908295E0
1.335413630E-1,7.242459804E-2,2.437895775E0,9.874884605E0
1.355395400E-1,9.636662155E-2,2.610278368E0,9.894038200E0
1.375377170E-1,9.157821536E-2,3.022081137E0,9.080010414E0
1.395358940E-1,1.496376097E-2,3.098695517E0,8.711302757E0
1.415341240E-1,-1.334767491E-1,2.030881643E0,1.018613148E1
1.435324050E-1,-1.669955701E-1,2.054823637E0,1.042555141E1
1.455306860E-1,5.327098817E-2,2.993350744E0,9.506177902E0
1.475289670E-1,1.298854351E-1,2.739565372E0,9.850942612E0
1.495272490E-1,8.678980917E-2,2.423530579E0,9.764751434E0
1.515255300E-1,5.386953708E-3,2.064400434E0,1.053089619E1
1.535238110E-1,7.242459804E-2,2.299032211E0,1.033457184E1
1.555220920E-1,1.681926697E-1,3.012504339E0,9.443928719E0
1.575203740E-1,1.017535757E-2,2.591124773E0,9.324218750E0
1.595186550E-1,-9.516951442E-2,2.418742180E0,9.285911560E0
1.615169360E-1,-2.813187055E-2,2.710834980E0,9.558850288E0
1.635151650E-1,1.107318252E-1,2.902370930E0,9.927556992E0
1.655133940E-1,2.974795699E-1,2.849698544E0,9.975440979E0
1.675116240E-1,1.059434265E-1,2.083554029E0,9.812635422E0
1.695098530E-1,1.298854351E-1,2.251148224E0,1.016697788E1
1.715080820E-1,4.076128304E-1,2.897582531E0,1.048780060E1
1.735063110E-1,4.363432527E-1,3.060388327E0,9.477447510E0
1.755045400E-1,2.831143439E-1,2.184110403E0,1.025795746E1
1.775027690E-1,2.448071241E-1,2.528875589E0,9.850942612E0
1.795008940E-1,1.873462796E-1,2.763507366E0,9.032125473E0
1.814989670E-1,1.394622475E-1,2.706046581E0,8.514978409E0
1.834970400E-1,1.825578809E-1,2.433107376E0,9.151836395E0
1.854951130E-1,2.926911712E-1,2.447472572E0,9.582792282E0
1.874931860E-1,2.064998895E-1,1.532887697E0,1.153646088E1
1.894912590E-1,2.783259451E-1,2.275090218E0,1.080862331E1
1.914893320E-1,2.352303118E-1,3.352480888E0,8.471882820E0
1.934874050E-1,1.975216344E-2,2.849698544E0,8.950722694E0
1.954854780E-1,-2.244564146E-1,2.231994629E0,8.749609947E0
1.974835510E-1,-3.202244639E-1,1.652597666E0,1.035851383E1
1.994816240E-1,-1.478419602E-1,2.581547976E0,9.673771858E0
2.014797490E-1,-1.143231317E-1,3.448249102E0,7.878120899E0
2.034778740E-1,-1.909375787E-1,2.586336374E0,8.955511093E0
2.054759990E-1,-1.861491799E-1,1.638232470E0,1.027711105E1
2.074741240E-1,2.932897024E-2,1.781884670E0,1.084693050E1
2.094722490E-1,1.634042710E-1,2.433107376E0,1.064581776E1
2.114704260E-1,2.352303118E-1,3.275866508E0,9.396044731E0
2.134686550E-1,1.298854351E-1,3.079541922E0,9.261969566E0
2.154668840E-1,-1.376665942E-2,2.509721994E0,9.041702271E0
2.174651130E-1,-2.053027898E-1,1.997362733E0,1.015261269E1
2.194633940E-1,-1.669955701E-1,2.715623379E0,9.621099472E0
2.214617280E-1,-1.765723825E-1,2.471414804E0,9.659406662E0
2.234601130E-1,-1.861491799E-1,2.318185806E0,9.712079048E0
2.254585510E-1,-2.914940715E-1,2.452261209E0,9.501389503E0
2.274570400E-1,-2.867056429E-1,2.054823637E0,9.951498985E0
2.294555820E-1,-2.962824702E-1,1.652597666E0,1.021965027E1
2.314541240E-1,-3.681085110E-1,1.786673069E0,9.673771858E0
2.334526650E-1,-4.447229803E-1,2.380434990E0,9.175778389E0
2.354512070E-1,-6.649895310E-1,2.667739153E0,7.662642479E0
2.374496440E-1,-6.937199235E-1,1.734000564E0,1.013345909E1
2.394477170E-1,-5.979518890E-1,2.030881643E0,9.726444244E0
2.414457900E-1,-5.692214370E-1,1.791461468E0,1.046385860E1
2.434438110E-1,-5.596446395E-1,2.289455414E0,9.578003883E0
2.454417280E-1,-5.117605925E-1,2.198475599E0,1.006163311E1
2.474396440E-1,-6.314706802E-1,2.088342428E0,9.683348656E0
2.494375610E-1,-6.506243348E-1,1.772307754E0,1.066018295E1
2.514354780E-1,-6.841431260E-1,2.629431963E0,9.060855865E0
2.534333940E-1,-6.602011323E-1,1.906383157E0,1.014303589E1
2.554313630E-1,-6.554127336E-1,2.160168409E0,1.032978344E1
2.574293840E-1,-6.410474777E-1,2.686892748E0,9.597157478E0
2.594274570E-1,-5.404910445E-1,2.260725021E0,1.004247856E1
2.614255820E-1,-4.926069975E-1,2.337339401E0,9.783905029E0
2.634237590E-1,-3.154360652E-1,1.868075848E0,1.058356857E1
2.654219880E-1,-1.334767491E-1,1.465849996E0,1.181897640E1
2.674202690E-1,-1.717839688E-1,2.586336374E0,9.803058624E0
2.694186030E-1,-1.238999367E-1,2.418742180E0,1.046385860E1
2.714169880E-1,-2.771288455E-1,2.926312923E0,8.491036415E0
2.734153740E-1,-2.053027898E-1,1.695693374E0,1.126352215E1
2.754137590E-1,-2.244564146E-1,2.437895775E0,9.731232643E0
2.774121440E-1,-2.813187055E-2,2.969408751E0,9.841365814E0
2.794105300E-1,-1.855506375E-2,3.218405724E0,9.333795547E0
2.814089150E-1,-3.770867735E-2,2.322974205E0,9.980229378E0
2.834073010E-1,-1.238999367E-1,1.441908002E0,9.917980194E0
2.854056860E-1,-1.765723825E-1,1.580771685E0,1.080862331E1
2.874040710E-1,-2.148796022E-1,2.672527552E0,9.788693428E0
2.894024570E-1,-2.723404467E-1,2.983773947E0,8.519766808E0
2.914008420E-1,-3.154360652E-1,2.126649618E0,9.103952408E0
2.933992280E-1,-4.255693555E-1,2.136226416E0,8.989029884E0
2.953976130E-1,-4.734533727E-1,7.667431235E-1,1.003290176E1
2.973957380E-1,-2.962824702E-1,2.639008760E0,9.764751434E0
2.993938630E-1,-9.038111567E-2,2.878428936E0,9.625887871E0
3.013919880E-1,-2.196680009E-1,1.906383157E0,9.554061890E0
3.033901130E-1,-2.867056429E-1,1.609502077E0,8.931569099E0
3.053882380E-1,-2.675520480E-1,1.729212165E0,9.889249802E0
3.073863630E-1,-2.100912035E-1,2.121861219E0,9.803058624E0
3.093844880E-1,-1.957259923E-1,2.418742180E0,9.185355186E0
3.113826130E-1,-3.345896900E-1,1.786673069E0,8.696937561E0
3.133807380E-1,-5.021837950E-1,8.385691643E-1,9.496601105E0
3.153788630E-1,-3.585317135E-1,1.796249866E0,9.257181168E0
3.173769880E-1,-2.771288455E-1,2.485780001E0,8.888473511E0
3.193751650E-1,-1.813607812E-1,2.763507366E0,8.984241486E0
3.213733940E-1,-1.813607812E-1,1.528099179E0,9.999382973E0
3.233716760E-1,-3.010708690E-1,1.293467522E0,9.817423820E0
3.253700090E-1,-3.489548862E-1,2.097919226E0,8.917203903E0
3.273683940E-1,-4.447229803E-1,2.605489969E0,8.376114845E0
3.293667800E-1,-4.303577542E-1,2.442684174E0,8.443152428E0
3.313651650E-1,-3.728969097E-1,6.135141850E-1,1.075595093E1
3.333635510E-1,-3.489548862E-1,4.459200799E-1,1.106240940E1
3.353619360E-1,-3.298012912E-1,1.288679123E0,1.057399178E1
3.373603210E-1,-3.776853085E-1,3.017292738E0,8.222886086E0
3.393587070E-1,-4.303577542E-1,2.744353771E0,8.117541313E0
3.413570920E-1,-3.345896900E-1,1.992574334E0,9.170989990E0
3.433553210E-1,-3.345896900E-1,4.746504724E-1,1.085171890E1
3.453535510E-1,-2.914940715E-1,8.146271110E-1,1.006642151E1
3.473517800E-1,-1.095347255E-1,1.896806240E0,9.166201591E0
3.493500090E-1,-1.191115379E-1,2.873640537E0,8.510190010E0
3.513482380E-1,1.496376097E-2,3.362057686E0,8.093599319E0
3.533464670E-1,2.448071241E-1,1.236006618E0,1.058356857E1
3.553446960E-1,3.836708367E-1,9.582792521E-1,1.134971333E1
3.573429260E-1,4.794389009E-1,2.112284422E0,9.611522675E0
3.593411550E-1,6.087257862E-1,2.428318977E0,9.558850288E0
3.613393840E-1,6.374561787E-1,2.413953781E0,9.266757965E0
3.633376130E-1,6.183025837E-1,2.844910145E0,8.428787231E0
3.653358420E-1,6.613982320E-1,9.151836038E-1,1.135929012E1
3.673340710E-1,7.188590765E-1,1.183334231E0,1.081820011E1
3.693323010E-1,7.092822790E-1,2.854486942E0,8.787917137E0
3.713305300E-1,7.284358740E-1,3.328538895E0,8.423998833E0
3.733287590E-1,6.997054219E-1,2.423530579E0,9.305065155E0
3.753269880E-1,6.757634282E-1,9.008184075E-1,1.089481449E1
3.773252170E-1,7.140706778E-1,1.350928307E0,1.039682102E1
3.793234460E-1,7.619546652E-1,2.102707624E0,1.012388229E1
3.813216760E-1,6.613982320E-1,2.715623379E0,9.065644264E0
3.833199050E-1,4.985924959E-1,1.662174582E0,9.338583946E0
3.853181340E-1,4.315548539E-1,1.537676096E0,9.736021042E0
3.873162590E-1,3.597288132E-1,1.236006618E0,9.937133789E0
3.893143840E-1,3.166331649E-1,1.556829691E0,9.094375610E0
3.913125090E-1,3.549404144E-1,2.931101322E0,7.653065681E0
3.933106340E-1,4.267664552E-1,1.810615063E0,9.439140320E0
3.953087590E-1,4.171896577E-1,2.543839216E-1,1.117733097E1
3.973068840E-1,4.028244317E-1,6.374561787E-1,1.015261269E1
3.993050090E-1,5.464765429E-1,2.720411777E0,8.864531517E0
4.013031340E-1,4.890156984E-1,2.878428936E0,8.491036415E0
4.033012590E-1,2.448071241E-1,5.368997455E-1,1.077989292E1
4.052993840E-1,1.203086376E-1,1.341351509E0,9.089587212E0
4.072975090E-1,5.327098817E-2,6.805518270E-1,9.898826599E0
4.092956340E-1,-1.238999367E-1,2.552817583E0,7.571662903E0
4.112937590E-1,-7.601590455E-2,2.361281395E0,8.093599319E0
4.132918840E-1,-1.143231317E-1,1.221641421E0,9.597157478E0
4.152900090E-1,1.017535757E-2,1.586158574E-1,1.104804420E1
4.172881340E-1,-2.334346622E-2,1.992574334E0,8.285135269E0
4.192863110E-1,2.932897024E-2,2.006939650E0,8.639476776E0
4.212845400E-1,1.496376097E-2,6.757634282E-1,9.961075783E0
4.232828210E-1,-5.686229095E-2,1.307832718E0,8.864531517E0
4.252811550E-1,-2.813187055E-2,1.686116576E0,8.328230858E0
4.272795400E-1,2.454056777E-2,9.295488000E-1,9.932345390E0
4.292779780E-1,1.298854351E-1,7.571662664E-1,1.104804420E1
4.312764670E-1,1.969230920E-1,1.231218219E0,1.026753426E1
4.332750090E-1,5.386953708E-3,5.704185367E-1,9.578003883E0
4.352736030E-1,-1.047463268E-1,1.571194887E0,8.304288864E0
4.372721960E-1,-3.298012912E-1,1.087566137E0,7.839813232E0
4.392707900E-1,-3.393780887E-1,1.504157186E0,8.419210434E0
4.412693840E-1,-3.292027488E-2,1.489791989E0,1.000417137E1
4.432679260E-1,3.118447661E-1,1.590348482E0,1.020049667E1
4.452661550E-1,4.267664552E-1,1.571194887E0,1.013345909E1
4.472643840E-1,3.788824081E-1,1.264737010E0,9.558850288E0
4.492626130E-1,3.501519859E-1,2.016516447E0,8.840589523E0
4.512608420E-1,3.740940094E-1,1.987785935E0,8.869319916E0
4.532590710E-1,4.411316514E-1,1.676539779E0,9.482235909E0
4.552573010E-1,5.560533404E-1,1.580771685E0,1.008078671E1
4.572554780E-1,5.464765429E-1,2.179322004E0,9.922768593E0
4.592536550E-1,4.315548539E-1,1.623867273E0,8.979453087E0
4.612518320E-1,4.698620737E-1,1.068412542E0,1.054047298E1
4.632500090E-1,5.991489887E-1,1.633444071E0,1.079425812E1
4.652481860E-1,6.901286244E-1,1.805826664E0,1.159392166E1
4.672463630E-1,4.794389009E-1,1.288679123E0,1.235527802E1
4.692445400E-1,1.155202314E-1,1.969230920E-1,1.315972996E1
4.712427170E-1,-6.165069342E-2,6.853402257E-1,1.280059910E1
4.732408940E-1,-1.238999367E-1,1.757942557E0,1.307353878E1
4.752390710E-1,-2.483984232E-1,2.672527552E0,1.141196251E1
4.772372490E-1,-5.596446395E-1,2.040458441E0,1.135929012E1
4.792354260E-1,-6.314706802E-1,2.260725021E0,1.118690777E1
4.812336030E-1,-4.016273320E-1,2.820968151E0,1.128746414E1
4.832317800E-1,-4.973953962E-1,2.447472572E0,1.109592819E1
4.852299570E-1,-3.393780887E-1,2.514510393E0,1.117733097E1
4.872281340E-1,-1.334767491E-1,2.710834980E0,1.071285534E1
4.892263110E-1,-2.100912035E-1,2.117072821E0,1.005205631E1
4.912244880E-1,-7.601590455E-2,2.002151251E0,9.803058624E0
4.932226650E-1,-2.813187055E-2,1.350928307E0,1.067933655E1
4.952208420E-1,1.496376097E-2,1.293467522E0,1.101452446E1
4.972190190E-1,5.386953708E-3,1.221641421E0,1.044949341E1
4.992171960E-1,1.975216344E-2,9.295488000E-1,1.026274586E1
5.012154260E-1,-2.819172442E-1,6.805518270E-1,9.721655846E0
5.032137070E-1,-5.069721937E-1,1.634042710E-1,8.835801125E0
5.052119880E-1,-4.686649740E-1,8.960300088E-1,8.711302757E0
5.072103210E-1,-5.117605925E-1,3.980360329E-1,9.012971878E0
5.092087070E-1,-5.979518890E-1,-1.110311031E0,1.061229897E1
5.112071440E-1,-3.441664875E-1,-3.585317135E-1,1.122521496E1
5.132055820E-1,-4.016273320E-1,-8.559270948E-2,1.041597462E1
5.152040190E-1,-4.112041295E-1,-5.117605925E-1,9.860519409E0
5.172024570E-1,-4.638765752E-1,-1.957259923E-1,9.415198326E0
5.192008940E-1,-3.728969097E-1,2.304419130E-1,9.386467934E0
5.211993320E-1,-3.154360652E-1,2.831143439E-1,9.520543098E0
5.231978210E-1,-1.669955701E-1,3.932476342E-1,9.836577415E0
5.251963630E-1,-2.053027898E-1,-4.728548229E-2,9.769539833E0
5.271949570E-1,-9.038111567E-2,-9.516951442E-2,1.039682102E1
5.291936030E-1,1.634042710E-1,9.965864420E-1,9.625887871E0
5.311922490E-1,2.112883031E-1,4.746504724E-1,9.525331497E0
5.331908940E-1,1.250970364E-1,1.490390599E-1,9.295488358E0
5.351895400E-1,1.873462796E-1,1.017535757E-2,9.510966301E0
5.371881860E-1,2.352303118E-1,-1.334767491E-1,9.601945877E0
5.391868320E-1,3.022679687E-1,-9.038111567E-2,9.678560257E0
5.411854780E-1,3.693056107E-1,-1.622071713E-1,9.965864182E0
5.431841240E-1,4.842272997E-1,2.304419130E-1,9.539696693E0
5.451826650E-1,4.842272997E-1,8.200141042E-2,9.649829865E0
5.471810510E-1,5.512649417E-1,2.879027426E-1,9.601945877E0
5.491792800E-1,4.267664552E-1,-5.309142470E-1,9.985017776E0
5.511775090E-1,4.554968774E-1,-1.622071713E-1,1.002811337E1
5.531757380E-1,4.507084787E-1,-1.095347255E-1,9.448717117E0
5.551739670E-1,3.788824081E-1,1.059434265E-1,9.108740807E0
5.571721960E-1,3.836708367E-1,3.262099922E-1,9.151836395E0
5.591704260E-1,3.070563674E-1,4.938040972E-1,9.017760277E0
5.611686550E-1,2.256535143E-1,4.124012291E-1,8.854954720E0
5.631668840E-1,1.681926697E-1,7.242459804E-2,8.826224327E0
5.651651130E-1,2.304419130E-1,2.454056777E-2,9.836577415E0
5.671633420E-1,2.208651006E-1,1.586158574E-1,1.038724422E1
5.691615710E-1,5.805939063E-2,2.160767019E-1,1.009515190E1
5.711598010E-1,-1.143231317E-1,6.284779310E-2,9.477447510E0
5.731580300E-1,-3.824737072E-1,-6.165069342E-2,1.009036350E1
5.751562590E-1,-3.633201122E-1,6.949170232E-1,9.985017776E0
5.771544880E-1,-4.686649740E-1,7.428010702E-1,9.060855865E0
5.791527170E-1,-6.602011323E-1,5.321113467E-1,9.985017776E0
5.811509460E-1,-7.559691668E-1,4.602852762E-1,9.405621529E0
5.831491760E-1,-7.272387743E-1,-2.771288455E-1,1.100973606E1
5.851474050E-1,-7.080851793E-1,-1.426345706E0,1.290594387E1
5.871456340E-1,-7.846996188E-1,3.645172119E-1,9.257181168E0
5.891438630E-1,-7.176619768E-1,1.192911029E0,1.104325581E1
5.911421440E-1,-9.331400990E-1,1.461061597E0,5.967547894E0
5.931404780E-1,-1.028908134E0,9.151836038E-1,8.107964516E0
5.951388630E-1,-9.331400990E-1,1.121084929E0,8.950722694E0
5.971373010E-1,-7.224503756E-1,5.386953708E-3,1.188601398E1
5.991357900E-1,-6.410474777E-1,-3.202244639E-1,1.312142277E1
6.011343320E-1,-7.128735781E-1,1.634042710E-1,8.352172852E0
6.031329260E-1,-7.751228213E-1,-7.122749835E-2,8.811859131E0
6.051315710E-1,-5.261258483E-1,5.895721912E-1,1.032020664E1
6.071302170E-1,-4.399345517E-1,1.350928307E0,7.815871239E0
6.091288630E-1,-2.675520480E-1,-1.861491799E-1,1.111987019E1
6.111275090E-1,-9.995792061E-2,-3.824737072E-1,1.256117916E1
6.131261550E-1,-1.669955701E-1,1.422754407E0,8.601169586E0
6.151248010E-1,-1.143231317E-1,1.868075848E0,7.744045258E0
6.171232380E-1,5.327098817E-2,1.748365760E0,8.720879555E0
6.191215710E-1,2.783259451E-1,9.870096445E-1,9.745597839E0
6.211199050E-1,4.746504724E-1,1.221641421E0,1.076073933E1
6.231180820E-1,6.326677799E-1,1.911171556E0,1.006163311E1
6.251162590E-1,7.428010702E-1,1.575983286E0,9.985017776E0
6.271144360E-1,8.912416101E-1,1.465849996E0,1.006642151E1
6.291126130E-1,1.140238523E0,1.676539779E0,1.043512821E1
6.311107900E-1,1.149815321E0,2.308609009E0,9.065644264E0
6.331089670E-1,1.106719732E0,2.083554029E0,8.802282333E0
6.351071440E-1,1.279102206E0,1.676539779E0,9.702502251E0
6.371053210E-1,1.384447098E0,1.465849996E0,1.070327854E1
6.391034990E-1,1.590348482E0,1.705270171E0,1.066018295E1
6.411016760E-1,1.633444071E0,2.045246840E0,9.994594574E0
6.430999050E-1,1.719635367E0,2.265513420E0,9.362525940E0
6.450981860E-1,1.590348482E0,1.911171556E0,9.884461403E0
6.470965190E-1,1.532887697E0,2.452261209E0,8.457517624E0
6.490949050E-1,1.451484799E0,2.327762604E0,8.907627106E0
6.510933420E-1,1.485003591E0,2.246359825E0,8.787917137E0
6.530918320E-1,1.379658699E0,1.394023895E0,9.625887871E0
6.550903740E-1,1.432331204E0,1.370081902E0,1.046385860E1
6.570889670E-1,1.556829691E0,1.743577361E0,1.051653099E1
6.590876130E-1,1.532887697E0,2.026093245E0,9.314641953E0
6.610862590E-1,1.221641421E0,4.028244317E-1,1.041597462E1
6.630849050E-1,1.073200941E0,5.273229480E-1,1.014782429E1
6.650835510E-1,1.039682031E0,1.595136881E0,9.530119896E0
6.670821960E-1,9.008184075E-1,1.968632340E0,8.965087891E0
6.690808420E-1,4.602852762E-1,9.151836038E-1,9.218873978E0
6.710794880E-1,2.735375464E-1,3.788824081E-1,1.010951710E1
6.730780300E-1,3.884592354E-1,1.480215192E0,9.319430351E0
6.750764150E-1,3.597288132E-1,2.231994629E0,9.017760277E0
6.770745920E-1,1.538274586E-1,1.374870300E0,8.960299492E0
6.790727690E-1,-1.047463268E-1,9.636662155E-2,9.908403397E0
6.810709460E-1,2.454056777E-2,7.140706778E-1,1.009515190E1
6.830691240E-1,8.678980917E-2,1.207276225E0,1.044470501E1
6.850673010E-1,-2.340332121E-1,1.034893632E0,1.016218948E1
6.870655300E-1,-4.064157307E-1,1.197699428E0,9.324218750E0
6.890638110E-1,-6.841431260E-1,1.921346933E-1,1.058835697E1
6.910621440E-1,-8.613140583E-1,-1.526303589E-1,1.006163311E1
6.930605300E-1,-7.990648150E-1,9.295488000E-1,9.338583946E0
6.950589670E-1,-1.033696532E0,1.034893632E0,7.973888874E0
6.970574570E-1,-8.421604633E-1,1.054047346E0,9.386467934E0
6.990559990E-1,-6.171054840E-1,1.049258947E0,1.000417137E1
7.010545920E-1,-8.948329091E-1,-5.548562407E-1,1.074637413E1
7.030532380E-1,-9.427168965E-1,-4.016273320E-1,1.122521496E1
7.050519360E-1,-7.703344226E-1,4.554968774E-1,1.134971333E1
7.070506340E-1,-8.852560520E-1,1.212064624E0,7.595604897E0
7.090493320E-1,-9.762357473E-1,5.943605900E-1,9.429563522E0
7.110480300E-1,-9.235633016E-1,2.454056777E-2,1.054526138E1
7.130467280E-1,-9.714473486E-1,2.112883031E-1,9.448717117E0
7.150454260E-1,-8.948329091E-1,1.054047346E0,8.917203903E0
7.170441240E-1,-6.985083222E-1,1.619078875E0,9.357737541E0
7.190427170E-1,-7.559691668E-1,4.985924959E-1,1.013345909E1
7.210413110E-1,-5.787982345E-1,1.030105233E0,9.180566788E0
7.230399050E-1,-5.548562407E-1,-1.282693505E0,1.266173553E1
7.250384990E-1,-4.303577542E-1,-2.813187055E-2,9.951498985E0
7.270370920E-1,-3.298012912E-1,1.417966008E0,9.587580681E0
7.290356860E-1,-1.526303589E-1,2.739565372E0,7.150283337E0
7.310342800E-1,-1.622071713E-1,1.394023895E0,7.796717644E0
7.330328740E-1,-4.189853091E-3,-2.053027898E-1,1.158913326E1
7.350314670E-1,1.155202314E-1,2.352303118E-1,1.148378849E1
7.370300090E-1,1.538274586E-1,1.006163239E0,1.032978344E1
7.390283420E-1,-2.334346622E-2,8.720879555E-1,9.803058624E0
7.410266760E-1,5.985504249E-4,9.391255975E-1,8.361749649E0
7.430250090E-1,1.011550203E-1,7.284358740E-1,9.477447510E0
7.450233420E-1,-7.122749835E-2,6.039373875E-1,1.072243214E1
7.470216760E-1,-2.053027898E-1,4.219780564E-1,9.927556992E0
7.490200090E-1,-2.723404467E-1,-9.570821524E-1,1.247977638E1
7.510183420E-1,-2.627636492E-1,4.076128304E-1,9.668983459E0
7.530166760E-1,-3.058592677E-1,2.279878616E0,5.388150692E0
7.550150090E-1,-3.154360652E-1,1.350928307E0,8.160636902E0
7.570133420E-1,-3.058592677E-1,5.321113467E-1,9.630676270E0
7.590116760E-1,-1.526303589E-1,-4.973953962E-1,1.170405483E1
7.610100090E-1,-1.765723825E-1,-3.058592677E-1,1.213501167E1
7.630083940E-1,-3.728969097E-1,8.720879555E-1,9.333795547E0
7.650067800E-1,-5.404910445E-1,1.097142935E0,8.151060104E0
7.670051650E-1,-4.782418013E-1,1.796249866E0,8.275558472E0
7.690035510E-1,-3.585317135E-1,1.350928307E0,8.701725960E0
7.710019360E-1,-3.298012912E-1,-1.478419602E-1,1.129704094E1
7.730003210E-1,-2.436100245E-1,-1.751957059E0,1.276229191E1
7.749987070E-1,-1.047463268E-1,-2.579752207E-1,1.135929012E1
7.769970920E-1,-6.362590790E-1,2.519298792E0,7.767987251E0
7.789954780E-1,-6.937199235E-1,2.265513420E0,7.183802128E0
7.809938630E-1,-4.016273320E-1,1.489791989E0,6.795941353E0
7.829922490E-1,-5.692214370E-1,2.831143439E-1,8.644265175E0
7.849906340E-1,-3.393780887E-1,-1.014542937E0,1.415571785E1
7.869890190E-1,-3.968389332E-1,-3.824737072E-1,1.117254257E1
7.889874050E-1,-4.207809567E-1,-6.841431260E-1,1.057878017E1
7.909857900E-1,-3.441664875E-1,1.777694821E-1,1.106719780E1
7.929841760E-1,-5.404910445E-1,1.743577361E0,6.628347397E0
7.949826130E-1,-6.649895310E-1,1.537676096E0,5.665878296E0
7.969811030E-1,-3.920505345E-1,7.140706778E-1,9.822212219E0
7.989796440E-1,-1.286883354E-1,1.034893632E0,1.110550499E1
8.009782380E-1,-1.957259923E-1,-1.376665942E-2,1.060751057E1
8.029768840E-1,-6.165069342E-2,-7.320271730E-1,1.219726086E1
8.049755820E-1,-4.189853091E-3,3.980360329E-1,1.063145256E1
8.069742800E-1,-6.165069342E-2,1.729212165E0,8.854954720E0
8.089729780E-1,-2.867056429E-1,2.169745207E0,6.982689381E0
8.109716760E-1,-4.064157307E-1,9.103952050E-1,7.930793285E0
8.129703740E-1,-1.478419602E-1,7.475894690E-1,9.841365814E0
8.149690710E-1,9.157821536E-2,-2.867056429E-1,1.344224548E1
8.169677690E-1,1.681926697E-1,-7.320271730E-1,1.200572395E1
8.189664670E-1,-7.601590455E-2,1.058835745E0,9.587580681E0
8.209650090E-1,-1.861491799E-1,2.696469545E0,6.934805393E0
8.229634460E-1,-1.478419602E-1,1.480215192E0,6.709750175E0
8.249618840E-1,-2.531868219E-1,-4.112041295E-1,1.032499504E1
8.269602690E-1,-7.601590455E-2,5.991489887E-1,1.184291840E1
8.289586030E-1,-1.526303589E-1,3.980360329E-1,9.908403397E0
8.309569360E-1,-1.717839688E-1,5.273229480E-1,9.630676270E0
8.329552690E-1,-3.010708690E-1,4.842272997E-1,9.606734276E0
8.349536030E-1,-2.053027898E-1,6.183025837E-1,9.352949142E0
8.369519360E-1,-8.080431074E-2,1.408389091E0,1.026274586E1
8.389501130E-1,-4.782418013E-1,5.033808947E-1,1.112944698E1
8.409482900E-1,-5.548562407E-1,1.365293503E0,7.207744122E0
8.429464670E-1,-4.447229803E-1,-8.559270948E-2,1.160349846E1
8.449446440E-1,-4.064157307E-1,9.056068063E-1,1.081341171E1
8.469428210E-1,-7.272387743E-1,1.336563110E0,6.403292656E0
8.489409990E-1,-7.894880176E-1,1.188122630E0,7.854178905E0
8.509391760E-1,-4.638765752E-1,-1.957259923E-1,1.489791965E1
8.529374050E-1,-4.830302000E-1,1.829768658E0,5.368997097E0
8.549356860E-1,-7.272387743E-1,-3.489548862E-1,1.026274586E1
8.569339670E-1,-5.692214370E-1,-1.052850246E0,1.380137539E1
8.589323010E-1,-5.931634903E-1,1.575983286E0,7.648277283E0
8.609306860E-1,-7.128735781E-1,1.595136881E0,8.002618790E0
8.629290710E-1,-7.368155718E-1,5.943605900E-1,1.070327854E1
8.649274570E-1,-7.511807680E-1,-2.867056429E-1,1.068891335E1
8.669258420E-1,-6.985083222E-1,1.192911029E0,8.629899979E0
8.689242280E-1,-6.506243348E-1,1.777694821E-1,1.125873375E1
8.709226130E-1,-5.835866928E-1,1.975216344E-2,8.965087891E0
8.729209990E-1,-5.644330382E-1,1.159392118E0,8.783128738E0
8.749193840E-1,-3.585317135E-1,1.073200941E0,8.586804390E0
8.769178210E-1,-1.669955701E-1,-1.622071713E-1,1.068412495E1
8.789162590E-1,1.017535757E-2,-6.937199235E-1,1.232175922E1
8.809146960E-1,2.926911712E-1,-9.995792061E-2,1.066018295E1
8.829131860E-1,2.017114908E-1,1.470638394E0,7.801506042E0
8.849117280E-1,2.926911712E-1,1.499368787E0,7.360973358E0
8.869103210E-1,3.836708367E-1,1.015740037E0,1.030105305E1
8.889089670E-1,5.368997455E-1,1.226429820E0,9.616311073E0
8.909076650E-1,4.746504724E-1,9.103952050E-1,9.343372345E0
8.929064150E-1,5.895721912E-1,2.926911712E-1,1.137365532E1
8.949052170E-1,5.560533404E-1,-4.249707982E-2,1.237922001E1
8.969040190E-1,5.512649417E-1,7.092822790E-1,8.716091156E0
8.989028210E-1,5.560533404E-1,1.044470549E0,9.453505516E0
9.009016240E-1,4.124012291E-1,1.197699428E0,8.189367294E0
9.029003740E-1,4.076128304E-1,1.547252893E0,7.767987251E0
9.048987590E-1,6.278793812E-1,7.954735160E-1,1.089960289E1
9.068971440E-1,7.092822790E-1,-7.607575655E-1,1.221162605E1
9.088955300E-1,4.842272997E-1,5.895721912E-1,1.027232265E1
9.108939150E-1,3.645172119E-1,1.647809267E0,5.656301498E0
9.128923010E-1,5.416881442E-1,7.236474752E-1,1.041118622E1
9.148906860E-1,4.028244317E-1,7.906851172E-1,9.592369080E0
9.168890710E-1,2.543839216E-1,-7.601590455E-2,9.985017776E0
9.188874570E-1,2.112883031E-1,1.729810685E-1,1.046864700E1
9.208858420E-1,1.490390599E-1,3.022679687E-1,1.240795040E1
9.228842280E-1,-9.038111567E-2,9.103952050E-1,1.000417137E1
9.248826130E-1,-3.872621357E-1,1.451484799E0,5.981913090E0
9.268809990E-1,-2.483984232E-1,7.380126715E-1,1.035851383E1
9.288793840E-1,-1.191115379E-1,7.906851172E-1,1.105762100E1
9.308777690E-1,-3.681085110E-1,1.274313807E0,6.920440197E0
9.328761550E-1,-3.633201122E-1,5.512649417E-1,8.682572365E0
9.348745400E-1,-1.382651478E-1,1.921346933E-1,1.260906315E1
9.368729260E-1,-2.483984232E-1,2.687491477E-1,1.030584145E1
9.388712590E-1,-1.861491799E-1,9.965864420E-1,8.582015991E0
9.408695920E-1,-3.298012912E-1,8.912416101E-1,9.396044731E0
9.428679260E-1,-3.345896900E-1,2.974795699E-1,1.005205631E1
9.448662590E-1,-2.148796022E-1,5.327098817E-2,1.131619453E1
9.468645920E-1,-4.926069975E-1,-3.292027488E-2,1.021486187E1
9.488629260E-1,-5.500678420E-1,1.059434265E-1,1.026753426E1
9.508612590E-1,-8.421604633E-1,1.992574334E0,7.892486095E0
9.528595920E-1,-7.511807680E-1,1.326986313E0,8.198944092E0
9.548579260E-1,-6.314706802E-1,6.422445774E-1,1.136886692E1
9.568562590E-1,-8.086416125E-1,-1.478419602E-1,9.142259598E0
9.588545920E-1,-1.000177741E0,6.278793812E-1,8.491036415E0
9.608529260E-1,-9.618705511E-1,1.317409515E0,1.051653099E1
9.628512590E-1,-7.368155718E-1,1.427542806E0,8.026560783E0
9.648495920E-1,-7.128735781E-1,2.160767019E-1,1.113423538E1
9.668479260E-1,-6.937199235E-1,-5.021837950E-1,1.246541119E1
9.688462590E-1,-7.272387743E-1,4.848258570E-2,1.015261269E1
9.708446440E-1,-5.452794433E-1,-3.920505345E-1,1.223556805E1
9.728430820E-1,-7.080851793E-1,2.021304846E0,6.269217014E0
9.748415710E-1,-7.080851793E-1,2.998139143E0,5.881356239E0
9.768401130E-1,-5.117605925E-1,1.226429820E0,1.103367901E1
9.788386550E-1,-1.191115379E-1,2.495955229E-1,9.233239174E0
9.808371960E-1,-8.978256024E-3,-8.613140583E-1,1.435683060E1
9.828357380E-1,-5.207388848E-2,7.236474752E-1,8.850166321E0
9.848342800E-1,9.636662155E-2,2.447472572E0,7.557297707E0
9.868328210E-1,3.166331649E-1,1.039682031E0,1.071285534E1
9.888313630E-1,2.783259451E-1,9.822212458E-1,7.188590527E0
9.908299050E-1,6.278793812E-1,-2.483984232E-1,1.100015926E1
9.928282380E-1,8.242039084E-1,2.093130827E0,1.419402504E1
9.948264670E-1,7.715315223E-1,2.361281395E0,5.637147903E0
9.968246960E-1,9.056068063E-1,9.965864420E-1,8.797493935E0
9.988229260E-1,9.439139962E-1,1.408389091E0,1.157955647E1
1.000821051E0,9.008184075E-1,1.173757434E0,1.001374817E1
1.002819176E0,8.481459618E-1,5.512649417E-1,9.463082314E0
1.004817301E0,9.726444483E-1,1.231218219E0,9.103952408E0
1.006815426E0,9.247604012E-1,1.633444071E0,1.076073933E1
1.008813551E0,6.278793812E-1,1.959055543E0,6.240486622E0
1.010811676E0,6.853402257E-1,1.331774712E0,8.558073997E0
1.012809801E0,7.906851172E-1,5.033808947E-1,1.261863995E1
1.014807978E0,6.949170232E-1,4.315548539E-1,1.126831055E1
1.016806207E0,4.267664552E-1,1.350928307E0,9.199720383E0
1.018804488E0,1.538274586E-1,1.274313807E0,1.118211937E1
1.020802821E0,1.777694821E-1,1.025316834E0,1.030105305E1
1.022801207E0,-1.957259923E-1,1.772307754E0,4.837484360E0
1.024799644E0,-1.526303589E-1,1.523310781E0,9.472659111E0
1.026798134E0,-9.516951442E-2,5.464765429E-1,1.441907978E1
1.028796676E0,-3.010708690E-1,1.111508131E0,7.614758492E0
1.030795217E0,-4.638765752E-1,1.326986313E0,7.667430878E0
1.032793759E0,-1.382651478E-1,4.938040972E-1,1.405037308E1
1.034792301E0,-3.681085110E-1,1.442506462E-1,9.898826599E0
1.036790842E0,-5.596446395E-1,1.283890605E0,6.800729752E0
1.038789384E0,-5.979518890E-1,2.174533606E0,8.313865662E0
1.040787926E0,-5.165489912E-1,9.726444483E-1,1.176151562E1
1.042786467E0,-6.362590790E-1,-5.021837950E-1,8.519766808E0
1.044785009E0,-3.250128925E-1,-1.388038397E0,1.083735371E1
1.046783342E0,-4.973953962E-1,-3.154360652E-1,1.501763058E1
1.048781624E0,-9.379284978E-1,2.117072821E0,4.492719650E0
1.050779905E0,-5.835866928E-1,2.351704597E0,6.652289391E0
1.052778186E0,-5.404910445E-1,2.352303118E-1,9.510966301E0
1.054776467E0,-4.878185987E-1,-1.498171687E0,1.415571785E1
1.056774749E0,-6.075286865E-1,-2.531868219E-1,9.156624794E0
1.058773030E0,-4.447229803E-1,1.101931334E0,9.692925453E0
1.060771311E0,-6.937199235E-1,6.805518270E-1,1.089481449E1
1.062769592E0,-6.314706802E-1,4.554968774E-1,6.451176643E0
1.064767874E0,-4.112041295E-1,1.975216344E-2,1.058835697E1
1.066766155E0,-3.250128925E-1,1.496376097E-2,1.020528507E1
1.068764436E0,-1.717839688E-1,7.140706778E-1,8.380903244E0
1.070762717E0,-4.728548229E-2,9.774328470E-1,1.121563816E1
1.072760999E0,-5.207388848E-2,1.226429820E0,8.974664688E0
1.074759280E0,-9.038111567E-2,1.279102206E0,8.213309288E0
1.076757561E0,3.549404144E-1,1.197699428E0,9.309853554E0
1.078755842E0,3.932476342E-1,9.582792521E-1,8.807070732E0
1.080754124E0,5.799953341E-1,8.672995567E-1,1.106240940E1
1.082752405E0,7.763199210E-1,8.672995567E-1,1.121563816E1
1.084750686E0,8.050503135E-1,9.487023950E-1,8.237251282E0
1.086748967E0,7.811083198E-1,9.008184075E-1,9.343372345E0
1.088747249E0,9.151836038E-1,1.508945584E0,1.012867069E1
1.090745530E0,8.864531517E-1,1.647809267E0,7.116764545E0
1.092743811E0,1.130661726E0,-1.286883354E-1,1.155561447E1
1.094742092E0,1.341351509E0,-6.314706802E-1,1.035372543E1
1.096740374E0,1.379658699E0,-3.292027488E-2,1.246062279E1
1.098738655E0,1.355716705E0,5.321113467E-1,1.270961952E1
1.100736936E0,1.312621117E0,1.858499050E0,7.332242489E0
1.102735217E0,1.384447098E0,1.690904975E0,9.664195061E0
1.104733499E0,1.499368787E0,6.135141850E-1,1.210628128E1
1.106731780E0,1.173757434E0,1.633444071E0,6.891709805E0
1.108730061E0,1.264737010E0,2.548029184E0,8.476671219E0
1.110728342E0,1.269525409E0,1.954267144E0,1.103367901E1
1.112726624E0,1.116296530E0,1.216853023E0,9.549273491E0
1.114724905E0,1.140238523E0,5.943605900E-1,1.058356857E1
1.116723186E0,9.439139962E-1,6.518214345E-1,1.042555141E1
1.118721415E0,6.901286244E-1,4.507084787E-1,1.092354488E1
1.120719644E0,5.273229480E-1,1.499368787E0,9.807847023E0
1.122717874E0,9.636662155E-2,2.485780001E0,8.122329712E0
1.124716103E0,-4.728548229E-2,2.035670042E0,7.480683327E0
1.126714332E0,-3.585317135E-1,4.076128304E-1,8.208520889E0
1.128712561E0,-3.154360652E-1,-8.852560520E-1,1.024359226E1
1.130710790E0,-5.021837950E-1,-7.176619768E-1,1.158434486E1
1.132709019E0,-4.973953962E-1,2.017114908E-1,9.961075783E0
1.134707301E0,-5.261258483E-1,5.081692934E-1,8.797493935E0
1.136705634E0,-8.517372608E-1,-1.430535465E-1,8.787917137E0
1.138704019E0,-9.044097066E-1,-6.458359361E-1,9.185355186E0
1.140702457E0,-7.942764163E-1,3.357867897E-1,9.961075783E0
1.142700946E0,-9.379284978E-1,4.124012291E-1,1.055483818E1
1.144699488E0,-1.191713929E0,-5.165489912E-1,8.366538048E0
1.146698030E0,-1.038484931E0,-9.038111567E-2,8.198944092E0
1.148696571E0,-8.804676533E-1,-5.596446395E-1,1.031541824E1
1.150695113E0,-1.091157436E0,-9.283517003E-1,1.137365532E1
1.152693655E0,-6.027402878E-1,-8.277952671E-1,1.108156300E1
1.154692144E0,-7.703344226E-1,-4.590881765E-1,8.754398346E0
1.156690269E0,-7.224503756E-1,-1.445499301E0,9.324218750E0
1.158688394E0,-8.134300113E-1,-6.937199235E-1,1.019091988E1
1.160686519E0,-8.661024570E-1,-2.723404467E-1,9.913191795E0
1.162684644E0,-6.889315248E-1,-3.681085110E-1,8.735244751E0
1.164682769E0,-6.793547273E-1,-9.762357473E-1,9.123106003E0
1.166680894E0,-6.123170853E-1,-5.740098357E-1,9.807847023E0
1.168679019E0,-5.692214370E-1,-8.900445104E-1,8.649053574E0
1.170677196E0,-2.196680009E-1,-2.355295897E0,1.015740108E1
1.172675426E0,-1.286883354E-1,-2.020107746E0,1.166574764E1
1.174673707E0,-9.995792061E-2,-1.426345706E0,1.067454815E1
1.176672040E0,-2.334346622E-2,-9.522937536E-1,9.271546364E0
1.178670426E0,3.890577704E-2,-1.239597917E0,8.538920403E0
1.180668863E0,-8.978256024E-3,-2.053626537E0,9.482235909E0
1.182667353E0,-9.995792061E-2,-2.503736496E0,1.057399178E1
1.184665894E0,6.284779310E-2,-2.020107746E0,1.014782429E1
1.186664488E0,-4.189853091E-3,-2.661753654E0,1.066497135E1
1.188663134E0,5.327098817E-2,-2.570774078E0,1.010951710E1
1.190661780E0,1.777694821E-1,-2.345719099E0,1.130182934E1
1.192660426E0,1.250970364E-1,-1.344942808E0,8.740033150E0
1.194659071E0,7.242459804E-2,-1.771110654E0,8.582015991E0
1.196657717E0,2.926911712E-1,-2.609081268E0,9.424775124E0
1.198656363E0,4.507084787E-1,-2.427121878E0,1.071285534E1
1.200655009E0,3.597288132E-1,-2.230797529E0,1.068891335E1
1.202653655E0,4.076128304E-1,-1.421557307E0,9.218873978E0
1.204652144E0,2.064998895E-1,-1.325789213E0,9.630676270E0
1.206650634E0,3.166331649E-1,-9.618705511E-1,9.482235909E0
1.208649124E0,3.453635871E-1,-9.187749028E-1,9.070432663E0
1.210647613E0,7.242459804E-2,-1.531690478E0,9.630676270E0
1.212646103E0,3.693056107E-1,-1.483806491E0,1.042076302E1
1.214644592E0,5.704185367E-1,-1.191713929E0,9.855731010E0
1.216643082E0,6.230909824E-1,-2.531868219E-1,9.012971878E0
1.218641519E0,4.124012291E-1,-8.756792545E-1,9.118317604E0
1.220639957E0,7.284358740E-1,-1.862090349E0,1.018613148E1
1.222638394E0,1.049258947E0,-1.311424017E0,1.113423538E1
1.224636832E0,7.092822790E-1,-1.277905107E0,1.176151562E1
1.226635165E0,4.650736749E-1,-6.362590790E-1,8.965087891E0
1.228633499E0,4.650736749E-1,-2.531868219E-1,7.413645744E0
1.230631832E0,5.895721912E-1,-7.601590455E-2,8.366538048E0
1.232630165E0,3.980360329E-1,-4.590881765E-1,9.429563522E0
1.234628499E0,3.405751884E-1,-1.292270422E0,9.716867447E0
1.236626832E0,5.081692934E-1,-1.344942808E0,1.073200893E1
1.238625165E0,5.129576921E-1,-6.985083222E-1,1.079425812E1
1.240623499E0,4.219780564E-1,-1.541267395E0,1.018134308E1
1.242621832E0,2.591723204E-1,-1.483806491E0,9.937133789E0
1.244620165E0,5.081692934E-1,-6.266822815E-1,1.025316906E1
1.246618499E0,2.735375464E-1,-1.095347255E-1,9.841365814E0
1.248616832E0,1.729810685E-1,-1.430535465E-1,7.839813232E0
1.250615165E0,3.118447661E-1,-3.776853085E-1,7.677007675E0
1.252613499E0,4.267664552E-1,-1.244386315E0,1.003769016E1
1.254611832E0,6.039373875E-1,-9.091981053E-1,1.120127296E1
1.256610165E0,6.374561787E-1,-5.644330382E-1,1.043991661E1
1.258608499E0,7.380126715E-1,-8.134300113E-1,1.036330223E1
1.260606832E0,8.960300088E-1,-8.373720646E-1,9.645041466E0
1.262605165E0,4.890156984E-1,-1.311424017E0,8.936357498E0
1.264603499E0,8.816647530E-1,-1.253963113E0,8.989029884E0
1.266601832E0,9.056068063E-1,-5.213374496E-1,9.405621529E0
1.268600165E0,8.433575630E-1,-1.191713929E0,9.534908295E0
1.270598499E0,9.917980433E-1,-1.871667147E0,8.874108315E0
1.272596832E0,8.529343605E-1,-2.666542053E0,9.908403397E0
1.274595165E0,1.264737010E0,-1.914762855E0,1.074158573E1
1.276593499E0,9.630676508E-1,-1.287482023E0,9.721655846E0
1.278591832E0,1.092354536E0,-2.680907249E0,9.453505516E0
1.280590165E0,9.151836038E-1,-3.432686806E0,1.066497135E1
1.282588499E0,8.768763542E-1,-2.767098665E0,1.134013653E1
1.284586832E0,7.906851172E-1,-1.876455545E0,9.463082314E0
1.286585165E0,7.236474752E-1,-2.111087322E0,9.257181168E0
1.288583499E0,9.199720025E-1,-2.058414936E0,9.285911560E0
1.290581884E0,6.613982320E-1,-2.168548107E0,9.788693428E0
1.292580321E0,5.656301379E-1,-2.316988707E0,7.973888874E0
1.294578811E0,1.015740037E0,-1.991377234E0,9.046490669E0
1.296577353E0,1.077989340E0,-2.211643934E0,1.040639782E1
1.298575946E0,9.056068063E-1,-2.293046713E0,1.015261269E1
1.300574592E0,9.487023950E-1,-3.140594006E0,9.429563522E0
1.302573290E0,9.917980433E-1,-3.183689594E0,9.759963036E0
1.304571988E0,1.116296530E0,-2.891597033E0,1.066497135E1
1.306570686E0,7.811083198E-1,-2.556408882E0,1.041118622E1
1.308569384E0,8.098387122E-1,-2.973000050E0,8.854954720E0
1.310568082E0,9.008184075E-1,-2.666542053E0,8.807070732E0
1.312566467E0,1.140238523E0,-2.115875721E0,9.673771858E0
1.314564540E0,1.077989340E0,-2.091933727E0,9.889249802E0
1.316562613E0,1.068412542E0,-2.312200308E0,9.668983459E0
1.318560686E0,1.135450125E0,-2.403179884E0,9.846154213E0
1.320558759E0,1.030105233E0,-2.810194254E0,1.142632771E1
1.322556832E0,1.245583415E0,-1.890820742E0,1.119648457E1
1.324554957E0,1.269525409E0,-1.364096403E0,9.975440979E0
1.326553134E0,1.274313807E0,-1.900397658E0,9.487024307E0
1.328551363E0,9.870096445E-1,-1.862090349E0,8.749609947E0
1.330549644E0,1.207276225E0,-2.101510525E0,8.687360764E0
1.332547978E0,1.461061597E0,-2.048838139E0,8.888473511E0
1.334546363E0,1.417966008E0,-2.144606113E0,1.015740108E1
1.336544801E0,1.408389091E0,-2.580350876E0,1.054526138E1
1.338543290E0,1.379658699E0,-2.542043686E0,1.039682102E1
1.340541780E0,1.106719732E0,-2.666542053E0,9.697713852E0
1.342540269E0,1.212064624E0,-2.044049740E0,9.242815971E0
1.344538759E0,9.295488000E-1,-2.604292870E0,8.941145897E0
1.346537249E0,9.391255975E-1,-2.460640907E0,9.506177902E0
1.348535738E0,9.678560495E-1,-2.101510525E0,1.038245583E1
1.350534228E0,7.188590765E-1,-2.245162725E0,9.175778389E0
1.352532717E0,6.087257862E-1,-2.973000050E0,9.036913872E0
1.354531259E0,7.715315223E-1,-2.843713045E0,1.014303589E1
1.356529853E0,8.433575630E-1,-2.273893118E0,9.913191795E0
1.358528499E0,8.385691643E-1,-2.192490101E0,9.606734276E0
1.360527196E0,6.087257862E-1,-2.398391485E0,9.970652580E0
1.362525946E0,6.422445774E-1,-2.384026289E0,9.889249802E0
1.364524696E0,5.033808947E-1,-2.532466888E0,1.043991661E1
1.366523446E0,1.777694821E-1,-2.293046713E0,1.010472870E1
1.368522196E0,2.448071241E-1,-2.455852509E0,9.592369080E0
1.370520946E0,1.921346933E-1,-1.996165633E0,9.348160744E0
1.372519696E0,1.011550203E-1,-2.403179884E0,9.070432663E0
1.374518446E0,1.442506462E-1,-3.063979626E0,8.859743118E0
1.376517092E0,-3.770867735E-2,-3.284246206E0,9.793481827E0
1.378515478E0,1.681926697E-1,-3.514089584E0,9.961075783E0
1.380513863E0,1.203086376E-1,-3.729567766E0,1.053568459E1
1.382512249E0,1.059434265E-1,-3.566761971E0,1.009036350E1
1.384510634E0,2.160767019E-1,-3.020884037E0,1.040160942E1
1.386509019E0,2.064998895E-1,-2.905962229E0,9.779116631E0
1.388507405E0,-6.643909961E-2,-3.063979626E0,1.018134308E1
1.390505790E0,-7.601590455E-2,-3.236362219E0,9.329007149E0
1.392504176E0,1.017535757E-2,-2.810194254E0,9.578003883E0
1.394502561E0,9.636662155E-2,-2.565985680E0,9.496601105E0
1.396500946E0,1.298854351E-1,-2.680907249E0,9.688137054E0
1.398499332E0,3.118447661E-1,-2.949058056E0,9.611522675E0
1.400497717E0,1.203086376E-1,-3.466205597E0,9.989806175E0
1.402496103E0,2.017114908E-1,-3.207631826E0,1.026753426E1
1.404494488E0,3.932476342E-1,-2.752733469E0,1.001374817E1
1.406492874E0,4.507084787E-1,-2.211643934E0,8.811859131E0
1.408491259E0,5.416881442E-1,-2.235585928E0,8.965087891E0
1.410489644E0,5.321113467E-1,-2.565985680E0,1.019091988E1
1.412488082E0,5.704185367E-1,-2.853289843E0,1.049737740E1
1.414486571E0,5.273229480E-1,-2.379237890E0,9.908403397E0
1.416485113E0,7.571662664E-1,-1.675342679E0,8.763975143E0
1.418483707E0,5.512649417E-1,-2.082356930E0,7.202955723E0
1.420482353E0,7.667431235E-1,-2.355295897E0,6.087257862E0
1.422481051E0,8.098387122E-1,-2.905962229E0,6.839036942E0
1.424479749E0,8.672995567E-1,-3.356072187E0,7.566874504E0
1.426478446E0,8.481459618E-1,-3.815758944E0,8.371326447E0
1.428477144E0,7.858967185E-1,-4.040813923E0,8.912415504E0
1.430475842E0,6.326677799E-1,-3.882796526E0,8.644265175E0
1.432474540E0,5.799953341E-1,-3.758298159E0,8.543708801E0
1.434473238E0,3.932476342E-1,-3.743932962E0,8.831012726E0
1.436471936E0,3.549404144E-1,-3.590703964E0,8.864531517E0
1.438470634E0,3.118447661E-1,-3.380014181E0,8.701725960E0
1.440469332E0,2.735375464E-1,-3.447052002E0,9.008183479E0
1.442468030E0,-2.340332121E-1,-4.634575844E0,8.663418770E0
1.444466728E0,2.543839216E-1,-4.246715069E0,1.419881344E1
1.446465426E0,6.470330358E-1,-3.432686806E0,1.756027222E1
1.448464124E0,2.974795699E-1,-2.767098665E0,1.427063942E1
1.450462665E0,1.059434265E-1,-2.369661093E0,1.138323212E1
1.452461207E0,-2.196680009E-1,-2.211643934E0,1.097142887E1
1.454459749E0,-3.681085110E-1,-2.307411909E0,9.827000618E0
1.456458186E0,-3.681085110E-1,-2.752733469E0,9.252392769E0
1.458456624E0,-3.345896900E-1,-3.336918592E0,9.132682800E0
1.460455061E0,-3.770867735E-2,-3.772663355E0,8.974664688E0
1.462453499E0,2.112883031E-1,-4.031237125E0,9.084798813E0
1.464451936E0,5.321113467E-1,-4.285022259E0,9.640253067E0
1.466450374E0,6.183025837E-1,-4.471770287E0,1.017176628E1
1.468448811E0,7.140706778E-1,-4.347271919E0,9.975440979E0
1.470447249E0,7.284358740E-1,-4.131793499E0,9.793481827E0
1.472445738E0,6.230909824E-1,-3.964199543E0,9.678560257E0
1.474444280E0,5.704185367E-1,-3.696048975E0,8.931569099E0
1.476442874E0,5.704185367E-1,-3.547608376E0,8.845377922E0
1.478441519E0,4.554968774E-1,-3.576338768E0,9.175778389E0
1.480440217E0,3.740940094E-1,-3.581127167E0,9.549273491E0
1.482438915E0,3.501519859E-1,-3.676895142E0,9.951498985E0
1.484437613E0,3.070563674E-1,-3.782240152E0,1.002811337E1
1.486436311E0,2.543839216E-1,-3.873219728E0,9.836577415E0
1.488435009E0,2.543839216E-1,-4.002506733E0,9.563638687E0
1.490433707E0,2.208651006E-1,-4.179677486E0,9.831789017E0
1.492432196E0,2.304419130E-1,-4.332906723E0,1.002332497E1
1.494430686E0,3.166331649E-1,-4.443039894E0,1.016697788E1
1.496429176E0,3.309983909E-1,-4.557961464E0,1.057399178E1
1.498427613E0,3.549404144E-1,-4.577115059E0,1.031062984E1
1.500425946E0,4.267664552E-1,-4.557961464E0,1.008078671E1
1.502424280E0,4.028244317E-1,-4.610633850E0,1.032020664E1
1.504422613E0,4.315548539E-1,-4.629787445E0,1.037287903E1
1.506420946E0,4.985924959E-1,-4.648941040E0,1.034893703E1
1.508419332E0,4.842272997E-1,-4.672883034E0,1.046864700E1
1.510417769E0,4.890156984E-1,-4.706401825E0,1.054047298E1
1.512416259E0,5.321113467E-1,-4.725555420E0,1.046385860E1
1.514414801E0,5.656301379E-1,-4.744709015E0,1.055004978E1
1.516413394E0,5.416881442E-1,-4.759074211E0,1.076073933E1
1.518412040E0,5.416881442E-1,-4.715978622E0,1.087087250E1
1.520410738E0,5.512649417E-1,-4.624999046E0,1.097142887E1
1.522409488E0,5.033808947E-1,-4.514865875E0,1.115817738E1
1.524408290E0,4.746504724E-1,-4.462193489E0,1.132098293E1
1.526407092E0,4.219780564E-1,-4.376002312E0,1.154124928E1
1.528405894E0,3.405751884E-1,-4.304176331E0,1.171363163E1
