"Time (s)","Acceleration x (m/s^2)","Acceleration y (m/s^2)","Acceleration z (m/s^2)"
1.994683200E-2,1.011550203E-1,3.932476342E-1,9.554061890E0
2.194459300E-2,1.059434265E-1,3.884592354E-1,9.582792282E0
2.394235300E-2,1.155202314E-1,3.693056107E-1,9.601945877E0
2.594000900E-2,1.538274586E-1,2.543839216E-1,9.606734276E0
2.793766600E-2,1.250970364E-1,2.448071241E-1,9.601945877E0
2.993532200E-2,1.107318252E-1,3.166331649E-1,9.573215485E0
3.193287400E-2,1.298854351E-1,3.788824081E-1,9.587580681E0
3.393021800E-2,1.107318252E-1,4.219780564E-1,9.592369080E0
3.592756100E-2,1.059434265E-1,4.554968774E-1,9.597157478E0
3.792490500E-2,1.250970364E-1,4.602852762E-1,9.587580681E0
3.992224900E-2,1.250970364E-1,4.459200799E-1,9.640253067E0
4.191959300E-2,1.250970364E-1,4.746504724E-1,9.721655846E0
4.391693600E-2,1.394622475E-1,4.938040972E-1,9.908403397E0
4.591433200E-2,1.681926697E-1,5.033808947E-1,1.011430550E1
4.791178000E-2,1.873462796E-1,5.321113467E-1,1.009994030E1
4.990928000E-2,1.490390599E-1,5.799953341E-1,9.956287384E0
5.190683200E-2,1.346738487E-1,8.242039084E-1,9.855731010E0
5.390443600E-2,2.400187254E-1,1.298255920E0,9.803058624E0
5.590214500E-2,4.076128304E-1,1.987785935E0,9.884461403E0
5.789990500E-2,4.650736749E-1,2.117072821E0,1.008078671E1
5.989777000E-2,5.273229480E-1,2.117072821E0,1.016697788E1
6.189568600E-2,5.081692934E-1,2.035670042E0,1.019091988E1
6.389365500E-2,4.650736749E-1,1.925536752E0,1.017176628E1
6.589167600E-2,4.124012291E-1,1.724423766E0,1.019570827E1
6.788974900E-2,3.166331649E-1,1.518522382E0,1.015261269E1
6.988787400E-2,2.831143439E-1,1.336563110E0,1.007120991E1
7.188599900E-2,2.448071241E-1,1.183334231E0,1.004726696E1
7.388412400E-2,2.256535143E-1,1.044470549E0,9.932345390E0
7.588224900E-2,2.495955229E-1,9.199720025E-1,9.874884605E0
7.788037400E-2,2.591723204E-1,8.289923668E-1,9.836577415E0
7.987849900E-2,2.591723204E-1,7.619546652E-1,9.803058624E0
8.187636300E-2,2.783259451E-1,7.715315223E-1,9.783905029E0
8.387422800E-2,2.926911712E-1,8.481459618E-1,9.721655846E0
8.587209300E-2,2.735375464E-1,9.103952050E-1,9.726444244E0
8.786985300E-2,2.591723204E-1,9.630676508E-1,9.803058624E0
8.986761300E-2,2.160767019E-1,1.125873327E0,9.812635422E0
9.186537400E-2,2.448071241E-1,1.288679123E0,9.850942612E0
9.386313400E-2,2.735375464E-1,1.379658699E0,9.922768593E0
9.586089500E-2,2.974795699E-1,1.547252893E0,9.927556992E0
9.785865500E-2,2.879027426E-1,1.714846969E0,9.917980194E0
9.985641600E-2,2.879027426E-1,1.868075848E0,9.922768593E0
1.018541760E-1,2.831143439E-1,2.035670042E0,9.941922188E0
1.038519360E-1,2.400187254E-1,2.150591612E0,1.015740108E1
1.058496970E-1,1.873462796E-1,2.251148224E0,1.032499504E1
1.078474570E-1,2.017114908E-1,2.265513420E0,1.042076302E1
1.098452180E-1,2.017114908E-1,2.308609009E0,1.046864700E1
1.118429780E-1,2.064998895E-1,2.413953781E0,1.041597462E1
1.138407380E-1,1.394622475E-1,2.504933596E0,1.044949341E1
1.158384990E-1,8.200141042E-2,2.567182779E0,1.034414864E1
1.178362590E-1,9.636662155E-2,2.648585558E0,1.017176628E1
1.198340200E-1,1.394622475E-1,2.715623379E0,1.000417137E1
1.218317800E-1,2.112883031E-1,2.763507366E0,9.927556992E0
1.238295410E-1,2.112883031E-1,2.634220362E0,1.004247856E1
1.258273010E-1,2.543839216E-1,2.457049608E0,1.033457184E1
1.278250610E-1,2.543839216E-1,2.342127800E0,1.046385860E1
1.298228220E-1,2.495955229E-1,2.299032211E0,1.066018295E1
1.318205820E-1,3.166331649E-1,2.437895775E0,1.035851383E1
1.338183430E-1,3.118447661E-1,2.629431963E0,9.898826599E0
1.358161030E-1,2.448071241E-1,2.610278368E0,9.649829865E0
1.378138630E-1,2.495955229E-1,2.399588585E0,1.004726696E1
1.398116240E-1,2.735375464E-1,2.260725021E0,1.030584145E1
1.418094360E-1,2.879027426E-1,2.390011787E0,9.922768593E0
1.438072490E-1,2.639607489E-1,2.495356798E0,9.712079048E0
1.458050610E-1,2.687491477E-1,2.447472572E0,9.793481827E0
1.478028740E-1,2.974795699E-1,2.461838007E0,9.913191795E0
1.498006860E-1,3.262099922E-1,2.409165382E0,1.004247856E1
1.517984470E-1,3.932476342E-1,2.466626406E0,1.003769016E1
1.537959990E-1,3.884592354E-1,2.557605982E0,9.774328232E0
1.557935510E-1,3.836708367E-1,2.820968151E0,9.257181168E0
1.577911030E-1,3.788824081E-1,2.820968151E0,9.487024307E0
1.597886550E-1,3.166331649E-1,2.749142170E0,9.841365814E0
1.617862070E-1,2.639607489E-1,2.806602955E0,9.889249802E0
1.637837590E-1,1.729810685E-1,2.696469545E0,1.009994030E1
1.657813110E-1,8.678980917E-2,2.835333347E0,1.021965027E1
1.677788630E-1,1.975216344E-2,3.175309896E0,9.894038200E0
1.697764160E-1,-2.813187055E-2,3.433883905E0,9.692925453E0
1.717739680E-1,-6.643909961E-2,3.400364876E0,1.017176628E1
1.737715200E-1,-1.765723825E-1,3.563170671E0,1.012867069E1
1.757690720E-1,-2.723404467E-1,3.826532841E0,9.688137054E0
1.777666240E-1,-3.489548862E-1,3.697246075E0,1.010472870E1
1.797641760E-1,-3.728969097E-1,3.486556292E0,1.049737740E1
1.817617800E-1,-4.207809567E-1,3.558382273E0,1.022922707E1
1.837594360E-1,-4.638765752E-1,3.630208254E0,9.898826599E0
1.857571450E-1,-5.931634903E-1,2.969408751E0,1.091396809E1
1.877549050E-1,-5.787982345E-1,3.046023130E0,1.051174259E1
1.897526660E-1,-6.027402878E-1,3.385999680E0,9.812635422E0
1.917504260E-1,-6.937199235E-1,3.304596901E0,9.520543098E0
1.937481860E-1,-6.793547273E-1,2.955043554E0,1.032978344E1
1.957459470E-1,-5.787982345E-1,3.098695517E0,9.836577415E0
1.977437070E-1,-5.883750916E-1,2.883217335E0,1.007120991E1
1.997414680E-1,-6.218938828E-1,2.840121746E0,9.755174637E0
2.017392280E-1,-6.410474777E-1,2.658162355E0,9.846154213E0
2.037369880E-1,-6.314706802E-1,2.787449360E0,9.563638687E0
2.057347490E-1,-6.458359361E-1,2.806602955E0,9.702502251E0
2.077325090E-1,-6.362590790E-1,2.677315950E0,9.803058624E0
2.097302700E-1,-6.985083222E-1,2.624643564E0,9.941922188E0
2.117280300E-1,-6.985083222E-1,2.533663988E0,9.640253067E0
2.137257910E-1,-7.320271730E-1,2.399588585E0,1.013345909E1
2.157235510E-1,-7.990648150E-1,2.739565372E0,9.472659111E0
2.177213110E-1,-8.373720646E-1,2.782660961E0,9.041702271E0
2.197190720E-1,-8.900445104E-1,2.792237759E0,8.553285599E0
2.217168320E-1,-9.475052953E-1,2.777872562E0,8.558073997E0
2.237145930E-1,-9.044097066E-1,2.610278368E0,8.931569099E0
2.257123530E-1,-8.134300113E-1,2.346916199E0,9.860519409E0
2.277101130E-1,-7.607575655E-1,2.356492996E0,1.023401546E1
2.297078740E-1,-7.463923693E-1,2.437895775E0,9.774328232E0
2.317056340E-1,-7.751228213E-1,2.476203203E0,9.673771858E0
2.337033950E-1,-7.607575655E-1,2.409165382E0,9.415198326E0
2.357011550E-1,-8.373720646E-1,2.337339401E0,9.391256332E0
2.376989160E-1,-8.325836658E-1,2.820968151E0,8.084021568E0
2.396966760E-1,-8.661024570E-1,2.720411777E0,7.787140846E0
2.416944360E-1,-7.990648150E-1,2.332551003E0,8.079233170E0
2.436921970E-1,-6.793547273E-1,2.203263998E0,8.562862396E0
2.456899570E-1,-5.883750916E-1,2.169745207E0,8.711302757E0
2.476877180E-1,-4.207809567E-1,1.714846969E0,9.884461403E0
2.496854260E-1,-4.064157307E-1,1.724423766E0,9.999382973E0
2.516829260E-1,-4.830302000E-1,2.093130827E0,8.984241486E0
2.536804260E-1,-4.207809567E-1,1.772307754E0,9.147047997E0
2.556779260E-1,-4.926069975E-1,1.853710651E0,9.233239174E0
2.576754260E-1,-5.979518890E-1,2.303820610E0,8.768763542E0
2.596729260E-1,-5.261258483E-1,2.083554029E0,9.190143585E0
2.616704260E-1,-4.926069975E-1,1.370081902E0,1.026274586E1
2.636679780E-1,-6.266822815E-1,1.997362733E0,9.022548676E0
2.656655820E-1,-6.362590790E-1,2.346916199E0,8.720879555E0
2.676632380E-1,-5.069721937E-1,2.083554029E0,9.261969566E0
2.696609470E-1,-4.973953962E-1,1.772307754E0,9.865307808E0
2.716587070E-1,-5.979518890E-1,2.500145197E0,8.500613213E0
2.736564680E-1,-6.985083222E-1,2.849698544E0,7.451952934E0
2.756542280E-1,-5.835866928E-1,2.050035238E0,8.898050308E0
2.776519880E-1,-4.303577542E-1,1.815403461E0,9.300276756E0
2.796497490E-1,-3.728969097E-1,2.045246840E0,9.448717117E0
2.816475090E-1,-2.962824702E-1,1.973420739E0,9.635464668E0
2.836452700E-1,-2.483984232E-1,1.944690347E0,9.056067467E0
2.856430300E-1,-2.819172442E-1,1.915959954E0,8.831012726E0
2.876404260E-1,-2.388216257E-1,1.872864246E0,9.343372345E0
2.896377700E-1,-2.005143911E-1,2.073977232E0,8.519766808E0
2.916351130E-1,-1.574187577E-1,1.858499050E0,9.405621529E0
2.936324570E-1,-1.526303589E-1,2.078765631E0,8.625111580E0
2.956298010E-1,-1.478419602E-1,2.308609009E0,8.672995567E0
2.976271450E-1,-1.143231317E-1,2.485780001E0,7.796717644E0
2.996244880E-1,7.242459804E-2,1.523310781E0,1.011909389E1
3.016218320E-1,1.729810685E-1,1.810615063E0,9.448717117E0
3.036191760E-1,2.591723204E-1,2.064400434E0,9.621099472E0
3.056165720E-1,3.453635871E-1,2.188898802E0,9.678560257E0
3.076140200E-1,3.501519859E-1,2.131438017E0,9.482235909E0
3.096115200E-1,2.400187254E-1,1.585560083E0,9.846154213E0
3.116090720E-1,1.538274586E-1,2.097919226E0,9.482235909E0
3.136066760E-1,1.634042710E-1,1.987785935E0,1.056920338E1
3.156043320E-1,1.298854351E-1,2.184110403E0,9.803058624E0
3.176020410E-1,6.284779310E-2,2.251148224E0,9.841365814E0
3.195998010E-1,1.250970364E-1,2.457049608E0,1.016697788E1
3.215976130E-1,-9.995792061E-2,2.897582531E0,9.649829865E0
3.235954780E-1,-2.148796022E-1,2.591124773E0,1.055004978E1
3.255933430E-1,-7.122749835E-2,2.672527552E0,9.357737541E0
3.275912070E-1,2.932897024E-2,2.639008760E0,9.683348656E0
3.295890720E-1,-1.855506375E-2,2.471414804E0,9.415198326E0
3.315865720E-1,9.636662155E-2,1.623867273E0,1.092833328E1
3.335840200E-1,-2.334346622E-2,2.452261209E0,9.985017776E0
3.355814680E-1,-1.478419602E-1,2.701258183E0,8.519766808E0
3.375789160E-1,-1.622071713E-1,2.097919226E0,9.204508781E0
3.395763630E-1,-9.038111567E-2,1.523310781E0,1.132577133E1
3.415738110E-1,-1.622071713E-1,2.265513420E0,9.635464668E0
3.435712590E-1,-8.080431074E-2,2.260725021E0,9.630676270E0
3.455687590E-1,1.394622475E-1,1.513733983E0,1.123000336E1
3.475663110E-1,1.011550203E-1,1.944690347E0,1.047343540E1
3.495639160E-1,-6.643909961E-2,2.792237759E0,8.304288864E0
3.515615720E-1,3.411737457E-2,1.877652645E0,9.812635422E0
3.535592800E-1,1.969230920E-1,1.259948611E0,1.145984650E1
3.555570410E-1,1.011550203E-1,1.681328177E0,9.161413193E0
3.575548010E-1,1.442506462E-1,2.543240786E0,9.209297180E0
3.595525610E-1,2.400187254E-1,2.399588585E0,1.043033981E1
3.615503220E-1,2.112883031E-1,2.452261209E0,9.841365814E0
3.635480820E-1,3.740940094E-1,2.466626406E0,1.003290176E1
3.655458430E-1,3.884592354E-1,2.811391354E0,9.362525940E0
3.675436030E-1,4.985924959E-1,2.471414804E0,1.002332497E1
3.695413630E-1,4.698620737E-1,2.686892748E0,9.381679535E0
3.715390200E-1,3.645172119E-1,2.993350744E0,8.701725960E0
3.735366240E-1,3.693056107E-1,2.303820610E0,9.779116631E0
3.755340200E-1,2.926911712E-1,2.461838007E0,9.357737541E0
3.775314160E-1,3.501519859E-1,2.112284422E0,1.022443867E1
3.795288110E-1,3.836708367E-1,2.246359825E0,1.027711105E1
3.815262070E-1,4.124012291E-1,1.796249866E0,1.061229897E1
3.835236030E-1,2.639607489E-1,1.911171556E0,1.003769016E1
3.855210510E-1,2.448071241E-1,2.284667015E0,9.333795547E0
3.875185510E-1,1.681926697E-1,2.533663988E0,9.520543098E0
3.895161030E-1,2.208651006E-1,2.241571426E0,9.376891136E0
3.915137070E-1,2.639607489E-1,1.566406488E0,1.012867069E1
3.935113630E-1,1.921346933E-1,2.356492996E0,9.247604370E0
3.955090720E-1,2.112883031E-1,2.164956808E0,9.247604370E0
3.975068320E-1,1.921346933E-1,1.465849996E0,1.019091988E1
3.995046450E-1,1.634042710E-1,1.686116576E0,9.621099472E0
4.015025090E-1,7.242459804E-2,2.179322004E0,9.108740807E0
4.035004260E-1,2.932897024E-2,2.236783028E0,8.548497200E0
4.054983430E-1,5.386953708E-3,1.872864246E0,9.338583946E0
4.074962590E-1,2.454056777E-2,1.724423766E0,1.024359226E1
4.094941760E-1,3.890577704E-2,1.547252893E0,9.917980194E0
4.114918320E-1,-8.559270948E-2,1.671751380E0,9.707290649E0
4.134894880E-1,-1.047463268E-1,2.404376984E0,8.840589523E0
4.154871450E-1,1.250970364E-1,2.251148224E0,8.553285599E0
4.174848010E-1,2.543839216E-1,1.896806240E0,8.356961250E0
4.194824570E-1,4.124012291E-1,1.451484799E0,1.039203262E1
4.214801130E-1,5.225345492E-1,1.628655672E0,1.042555141E1
4.234777700E-1,6.661866307E-1,2.783259451E-1,1.255160236E1
4.254753220E-1,5.464765429E-1,1.441908002E0,1.001853657E1
4.274728740E-1,4.363432527E-1,1.475426793E0,1.004726696E1
4.294704260E-1,3.453635871E-1,1.552041292E0,1.067933655E1
4.314679780E-1,2.879027426E-1,2.164956808E0,1.016697788E1
4.334655300E-1,4.938040972E-1,2.083554029E0,1.041118622E1
4.354630820E-1,4.554968774E-1,2.040458441E0,1.116775417E1
4.374606340E-1,4.076128304E-1,2.198475599E0,1.077031612E1
4.394581860E-1,4.602852762E-1,2.021304846E0,1.059793377E1
4.414557380E-1,5.225345492E-1,2.390011787E0,1.109113979E1
4.434532910E-1,3.549404144E-1,3.065176725E0,8.735244751E0
4.454508950E-1,3.453635871E-1,2.337339401E0,9.558850288E0
4.474485510E-1,3.884592354E-1,2.145803213E0,1.000895977E1
4.494462590E-1,5.799953341E-1,1.494580388E0,1.169926643E1
4.514440200E-1,6.661866307E-1,2.179322004E0,9.601945877E0
4.534417800E-1,5.895721912E-1,2.423530579E0,9.180566788E0
4.554395410E-1,5.799953341E-1,2.117072821E0,1.043033981E1
4.574373010E-1,5.368997455E-1,2.006939650E0,1.021965027E1
4.594350610E-1,4.171896577E-1,1.930325150E0,9.621099472E0
4.614328220E-1,2.974795699E-1,1.892017841E0,9.333795547E0
4.634305820E-1,2.831143439E-1,1.575983286E0,9.846154213E0
4.654283430E-1,2.974795699E-1,1.245583415E0,1.040160942E1
4.674261030E-1,3.309983909E-1,1.346139908E0,1.023401546E1
4.694238630E-1,2.112883031E-1,1.504157186E0,9.606734276E0
4.714216240E-1,2.926911712E-1,1.542464495E0,9.937133789E0
4.734192280E-1,2.448071241E-1,1.815403461E0,9.630676270E0
4.754168320E-1,9.636662155E-2,1.872864246E0,9.391256332E0
4.774144360E-1,1.538274586E-1,1.508945584E0,1.026274586E1
4.794120410E-1,1.729810685E-1,2.227206230E0,8.711302757E0
4.814096450E-1,2.256535143E-1,1.925536752E0,9.266757965E0
4.834072490E-1,2.112883031E-1,1.614290476E0,1.027711105E1
4.854048530E-1,7.242459804E-2,1.695693374E0,1.016697788E1
4.874024570E-1,6.763619930E-2,2.107496023E0,9.027337074E0
4.894001130E-1,5.386953708E-3,2.035670042E0,9.582792282E0
4.913977700E-1,-4.728548229E-2,1.968632340E0,9.376891136E0
4.933954780E-1,-1.047463268E-1,1.609502077E0,9.879673004E0
4.953931860E-1,3.411737457E-2,1.489791989E0,9.597157478E0
4.973908950E-1,-6.165069342E-2,1.307832718E0,9.597157478E0
4.993886030E-1,-1.855506375E-2,1.231218219E0,1.019091988E1
5.013863110E-1,5.327098817E-2,1.240795016E0,9.601945877E0
5.033840200E-1,7.242459804E-2,1.173757434E0,9.779116631E0
5.053817280E-1,1.394622475E-1,7.428010702E-1,1.052610779E1
5.073794880E-1,4.369417951E-2,1.250371814E0,9.788693428E0
5.093772490E-1,1.969230920E-1,2.217629433E0,8.313865662E0
5.113750610E-1,3.357867897E-1,1.925536752E0,9.515754700E0
5.133729260E-1,4.507084787E-1,1.149815321E0,1.029147625E1
5.153708430E-1,4.890156984E-1,1.523310781E0,9.175778389E0
5.173687590E-1,6.039373875E-1,2.030881643E0,8.979453087E0
5.193666760E-1,8.385691643E-1,1.829768658E0,9.980229378E0
5.213645930E-1,7.763199210E-1,1.686116576E0,1.010951710E1
5.233625090E-1,7.667431235E-1,1.767519355E0,8.998606682E0
5.253603740E-1,1.006163239E0,1.164180517E0,1.036330223E1
5.273581340E-1,9.630676508E-1,1.360505104E0,9.994594574E0
5.293556340E-1,9.726444483E-1,1.461061597E0,9.266757965E0
5.313530820E-1,1.092354536E0,1.695693374E0,9.266757965E0
5.333505300E-1,1.173757434E0,1.686116576E0,9.817423820E0
5.353479780E-1,1.044470549E0,1.264737010E0,9.798270226E0
5.373454260E-1,9.103952050E-1,1.350928307E0,9.185355186E0
5.393428740E-1,9.151836038E-1,1.245583415E0,9.625887871E0
5.413403220E-1,1.106719732E0,9.774328470E-1,1.003769016E1
5.433377700E-1,1.044470549E0,1.403600693E0,9.156624794E0
5.453352700E-1,1.058835745E0,1.269525409E0,9.070432663E0
5.473327700E-1,1.001374841E0,1.125873327E0,9.779116631E0
5.493303220E-1,9.534908533E-1,1.461061597E0,9.266757965E0
5.513279260E-1,7.667431235E-1,1.360505104E0,8.979453087E0
5.533255300E-1,6.661866307E-1,8.337807655E-1,9.865307808E0
5.553231340E-1,8.146271110E-1,5.656301379E-1,9.937133789E0
5.573207380E-1,8.194155097E-1,9.391255975E-1,9.654618263E0
5.593183430E-1,7.475894690E-1,1.777096152E0,8.960299492E0
5.613159990E-1,7.667431235E-1,2.394800186E0,8.874108315E0
5.633137070E-1,7.906851172E-1,2.078765631E0,8.902838707E0
5.653114680E-1,6.566098332E-1,2.059612036E0,9.151836395E0
5.673092800E-1,8.577227592E-1,1.676539779E0,1.009515190E1
5.693070930E-1,5.895721912E-1,1.724423766E0,9.247604370E0
5.713049050E-1,7.236474752E-1,1.188122630E0,1.006163311E1
5.733027180E-1,6.374561787E-1,8.960300088E-1,1.057878017E1
5.753005300E-1,4.698620737E-1,7.619546652E-1,1.047822380E1
5.772983430E-1,6.183025837E-1,9.008184075E-1,9.544485092E0
5.792961550E-1,6.039373875E-1,1.054047346E0,9.769539833E0
5.812939680E-1,6.997054219E-1,1.025316834E0,1.025795746E1
5.832917800E-1,8.098387122E-1,1.571194887E0,8.342596054E0
5.852895930E-1,9.008184075E-1,1.274313807E0,1.020049667E1
5.872874050E-1,9.103952050E-1,9.870096445E-1,1.102410126E1
5.892852180E-1,9.582792521E-1,5.560533404E-1,1.141675091E1
5.912830300E-1,7.811083198E-1,4.842272997E-1,1.069849014E1
5.932808430E-1,6.422445774E-1,1.844133854E0,8.026560783E0
5.952786550E-1,7.858967185E-1,2.198475599E0,9.046490669E0
5.972764680E-1,8.194155097E-1,2.059612036E0,1.079425812E1
5.992742800E-1,5.081692934E-1,1.753154159E0,1.160828686E1
6.012720410E-1,5.464765429E-1,1.456273198E0,1.275750351E1
6.032695410E-1,5.321113467E-1,1.269525409E0,1.218768406E1
6.052669880E-1,2.926911712E-1,2.174533606E0,8.313865662E0
6.072644360E-1,2.783259451E-1,3.888782024E0,5.756857872E0
6.092618840E-1,3.309983909E-1,2.667739153E0,9.568427086E0
6.112593320E-1,3.788824081E-1,9.056068063E-1,1.277665710E1
6.132567800E-1,1.825578809E-1,1.935113549E0,9.860519409E0
6.152542280E-1,3.214215636E-1,2.605489969E0,7.155071735E0
6.172516760E-1,4.028244317E-1,7.332242727E-1,1.054526138E1
6.192491240E-1,3.932476342E-1,5.464765429E-1,1.133534813E1
6.212465720E-1,2.639607489E-1,5.656301379E-1,9.874884605E0
6.232440720E-1,4.076128304E-1,9.678560495E-1,9.539696693E0
6.252416240E-1,3.932476342E-1,1.676539779E0,9.295488358E0
6.272392280E-1,2.639607489E-1,7.523778677E-1,1.144069290E1
6.292368840E-1,1.155202314E-1,2.126649618E0,8.744821548E0
6.312345930E-1,-3.770867735E-2,1.858499050E0,9.228450775E0
6.332323530E-1,-9.516951442E-2,1.461061597E0,1.000895977E1
6.352301660E-1,-1.957259923E-1,1.145026922E0,9.894038200E0
6.372279780E-1,-8.559270948E-2,9.391255975E-1,9.194931984E0
6.392257910E-1,-7.601590455E-2,5.991489887E-1,1.002811337E1
6.412236030E-1,-3.250128925E-1,9.247604012E-1,9.530119896E0
6.432214680E-1,-3.776853085E-1,7.667431235E-1,1.056920338E1
6.452193320E-1,-3.585317135E-1,1.542464495E0,8.759186745E0
6.472171970E-1,-1.143231317E-1,1.863287449E0,8.558073997E0
6.492150610E-1,1.496376097E-2,1.087566137E0,1.015740108E1
6.512129260E-1,6.284779310E-2,4.507084787E-1,1.091875648E1
6.532107910E-1,-3.154360652E-1,2.509721994E0,6.939593792E0
6.552086550E-1,-1.478419602E-1,1.039682031E0,1.000895977E1
6.572065200E-1,7.721300423E-2,4.698620737E-1,1.040639782E1
6.592043840E-1,-2.334346622E-2,2.783259451E-1,1.109592819E1
6.612022490E-1,1.298854351E-1,7.811083198E-1,8.088809967E0
6.632001130E-1,2.687491477E-1,4.938040972E-1,9.132682800E0
6.651979780E-1,2.639607489E-1,8.146271110E-1,9.688137054E0
6.671957380E-1,9.636662155E-2,8.146271110E-1,9.702502251E0
6.691934990E-1,-7.122749835E-2,1.442506462E-1,1.157955647E1
6.711912590E-1,1.203086376E-1,1.920748353E0,7.365761757E0
6.731888630E-1,2.064998895E-1,9.917980433E-1,8.921992302E0
6.751864160E-1,1.873462796E-1,-4.686649740E-1,1.159392166E1
6.771839680E-1,6.763619930E-2,3.405751884E-1,9.692925453E0
6.791815200E-1,8.200141042E-2,6.135141850E-1,9.295488358E0
6.811790720E-1,2.783259451E-1,6.901286244E-1,9.606734276E0
6.831766240E-1,2.160767019E-1,1.772307754E0,8.615534782E0
6.851741760E-1,1.729810685E-1,1.015740037E0,1.019570827E1
6.871717280E-1,2.639607489E-1,-8.038532138E-1,1.210628128E1
6.891692800E-1,2.256535143E-1,9.822212458E-1,8.400056839E0
6.911668320E-1,5.177460909E-1,1.408389091E0,8.816647530E0
6.931643840E-1,5.704185367E-1,6.661866307E-1,1.041118622E1
6.951619360E-1,2.639607489E-1,2.591723204E-1,1.128267574E1
6.971595410E-1,1.586158574E-1,2.241571426E0,7.360973358E0
6.991571970E-1,3.070563674E-1,9.391255975E-1,1.014303589E1
7.011549050E-1,3.070563674E-1,3.166331649E-1,1.113423538E1
7.031526660E-1,1.203086376E-1,9.870096445E-1,9.453505516E0
7.051504780E-1,-1.376665942E-2,1.049258947E0,8.754398346E0
7.071482910E-1,6.763619930E-2,6.566098332E-1,9.582792282E0
7.091461030E-1,-1.430535465E-1,-6.171054840E-1,1.120606136E1
7.111439160E-1,-8.080431074E-2,-7.607575655E-1,1.014303589E1
7.131417280E-1,-5.686229095E-2,-4.159925580E-1,1.015740108E1
7.151395410E-1,1.011550203E-1,-5.692214370E-1,1.070806694E1
7.171373530E-1,-1.526303589E-1,3.549404144E-1,9.463082314E0
7.191351660E-1,-4.926069975E-1,2.643797159E0,6.388927460E0
7.211329780E-1,5.386953708E-3,4.124012291E-1,1.067454815E1
7.231307910E-1,6.763619930E-2,-3.681085110E-1,1.187164879E1
7.251286030E-1,-1.047463268E-1,4.650736749E-1,9.434351921E0
7.271263630E-1,-1.813607812E-1,7.332242727E-1,8.261193275E0
7.291241240E-1,-2.340332121E-1,9.247604012E-1,8.246828079E0
7.311218840E-1,4.369417951E-2,-1.143231317E-1,9.913191795E0
7.331194360E-1,-2.334346622E-2,-5.069721937E-1,1.074637413E1
7.351169880E-1,-1.526303589E-1,-2.914940715E-1,9.017760277E0
7.371145410E-1,2.735375464E-1,3.214215636E-1,8.845377922E0
7.391120930E-1,1.825578809E-1,3.836708367E-1,9.190143585E0
7.411096970E-1,4.369417951E-2,-3.058592677E-1,9.204508781E0
7.431073530E-1,8.678980917E-2,-6.458359361E-1,9.223662376E0
7.451050610E-1,1.873462796E-1,-1.660977483E0,1.154124928E1
7.471028220E-1,-4.728548229E-2,-4.495113790E-1,9.056067467E0
7.491006340E-1,-1.909375787E-1,1.963843942E0,5.187037945E0
7.510984990E-1,2.687491477E-1,3.836708367E-1,8.850166321E0
7.530964160E-1,3.693056107E-1,-1.110311031E0,1.194347477E1
7.550943840E-1,4.369417951E-2,-8.978256024E-3,8.931569099E0
7.570923530E-1,4.650736749E-1,2.543839216E-1,7.825448036E0
7.590903220E-1,6.805518270E-1,-2.039261341E0,1.307832718E1
7.610882910E-1,6.278793812E-1,-1.972223639E0,1.368166542E1
7.630862590E-1,6.757634282E-1,-2.436100245E-1,1.021965027E1
7.650842280E-1,7.332242727E-1,1.848922253E0,6.575675011E0
7.670821970E-1,1.001374841E0,7.715315223E-1,1.007120991E1
7.690801660E-1,1.010951638E0,-4.782418013E-1,1.308311558E1
7.710779260E-1,7.475894690E-1,2.454056777E-2,1.123000336E1
7.730756340E-1,8.385691643E-1,-2.819172442E-1,1.051174259E1
7.750732380E-1,9.870096445E-1,-4.590881765E-1,1.130182934E1
7.770708430E-1,8.912416101E-1,2.021304846E0,6.671442986E0
7.790684470E-1,9.678560495E-1,1.097142935E0,8.160636902E0
7.810660510E-1,1.034893632E0,-1.637035370E0,1.275750351E1
7.830636550E-1,8.577227592E-1,-1.694496274E0,1.448132896E1
7.850612590E-1,1.221641421E0,1.398812294E0,7.523778915E0
7.870588630E-1,1.250371814E0,2.442684174E0,7.696161270E0
7.890564680E-1,8.385691643E-1,1.504157186E0,8.409633636E0
7.910540720E-1,7.571662664E-1,1.921346933E-1,1.119648457E1
7.930516760E-1,3.118447661E-1,-4.542997777E-1,1.433767700E1
7.950492800E-1,6.763619930E-2,1.532887697E0,6.657077789E0
7.970468840E-1,5.386953708E-3,2.078765631E0,5.752069473E0
7.990444880E-1,-9.038111567E-2,4.219780564E-1,9.233239174E0
8.010420930E-1,-1.478419602E-1,-5.117605925E-1,1.215895367E1
8.030396970E-1,-3.441664875E-1,3.385999680E0,4.645948410E0
8.050373530E-1,-3.292027488E-2,3.424306870E0,5.723339081E0
8.070350610E-1,4.124012291E-1,-7.032967210E-1,1.531929970E1
8.090328220E-1,1.298854351E-1,3.118447661E-1,9.357737541E0
8.110306340E-1,-8.559270948E-2,7.092822790E-1,7.145494938E0
8.130284990E-1,-6.165069342E-2,-7.942764163E-1,9.750386238E0
8.150264160E-1,-2.914940715E-1,-1.431134105E0,1.083735371E1
8.170243840E-1,-3.585317135E-1,-2.259527922E0,1.078946972E1
8.190224050E-1,-3.393780887E-1,3.788824081E-1,6.805518150E0
8.210204260E-1,-3.872621357E-1,-5.207388848E-2,9.056067467E0
8.230184470E-1,-2.388216257E-1,3.788824081E-1,8.682572365E0
8.250164680E-1,2.400187254E-1,1.298854351E-1,1.102888966E1
8.270144880E-1,2.352303118E-1,-1.182137132E0,1.639190102E1
8.290121450E-1,-5.207388848E-2,2.351704597E0,7.212532520E0
8.310098010E-1,-2.196680009E-1,1.034893632E0,1.045907021E1
8.330074570E-1,-5.213374496E-1,9.965864420E-1,9.142259598E0
8.350049570E-1,-4.447229803E-1,1.001374841E0,8.486248016E0
8.370024570E-1,-7.122749835E-2,1.006163239E0,1.102410126E1
8.389999570E-1,-1.574187577E-1,9.582792521E-1,1.137844372E1
8.409974570E-1,1.011550203E-1,-3.770867735E-2,1.125873375E1
8.429949570E-1,1.538274586E-1,-8.559270948E-2,1.192910957E1
8.449924570E-1,-4.782418013E-1,2.753930569E0,6.815094948E0
8.469899570E-1,-3.633201122E-1,2.715623379E0,6.738480568E0
8.489874570E-1,-1.047463268E-1,-8.559270948E-2,1.259469795E1
8.509849570E-1,-2.914940715E-1,-2.244564146E-1,1.114381218E1
8.529824570E-1,-3.298012912E-1,1.355716705E0,8.141483307E0
8.549799570E-1,-4.926069975E-1,6.613982320E-1,8.232462883E0
8.569774570E-1,-1.861491799E-1,-1.660977483E0,1.272877312E1
8.589749570E-1,-3.202244639E-1,1.107318252E-1,8.706514359E0
8.609724570E-1,-4.255693555E-1,2.337339401E0,7.150283337E0
8.629699570E-1,-3.968389332E-1,2.184110403E0,6.096834660E0
8.649674570E-1,-7.122749835E-2,-1.225232720E0,1.265215874E1
8.669650090E-1,-3.770867735E-2,-3.111863613E0,1.334647751E1
8.689626130E-1,-4.351461530E-1,1.496376097E-2,7.892486095E0
8.709602700E-1,-4.782418013E-1,2.400187254E-1,8.026560783E0
8.729579780E-1,-2.436100245E-1,-3.202244639E-1,8.179790497E0
8.749556860E-1,-2.005143911E-1,-5.357026458E-1,9.113529205E0
8.769533950E-1,-5.207388848E-2,-5.883750916E-1,1.043991661E1
8.789511030E-1,1.394622475E-1,-1.574187577E-1,9.367314339E0
8.809488110E-1,2.064998895E-1,-1.129464626E0,1.160828686E1
8.829465200E-1,1.634042710E-1,-1.206079125E0,1.130661774E1
8.849442280E-1,-3.292027488E-2,5.081692934E-1,8.931569099E0
8.869419360E-1,6.284779310E-2,-4.447229803E-1,1.250850677E1
8.889396450E-1,4.848258570E-2,5.081692934E-1,9.180566788E0
8.909373010E-1,2.932897024E-2,2.136226416E0,6.618770599E0
8.929349570E-1,4.171896577E-1,-7.942764163E-1,1.080383492E1
8.949325610E-1,2.687491477E-1,-1.574187577E-1,9.434351921E0
8.969300610E-1,3.788824081E-1,1.969230920E-1,8.907627106E0
8.989274570E-1,8.194155097E-1,-6.985083222E-1,1.188601398E1
9.009248530E-1,7.044938207E-1,-3.770867735E-2,1.253244877E1
9.029222490E-1,1.059434265E-1,1.135450125E0,9.247604370E0
9.049196450E-1,2.495955229E-1,-6.165069342E-2,8.605957985E0
9.069170410E-1,6.135141850E-1,-1.938704848E0,1.191474438E1
9.089144360E-1,-1.813607812E-1,2.974795699E-1,8.356961250E0
9.109118320E-1,-1.574187577E-1,1.532887697E0,6.642712593E0
9.129092800E-1,3.501519859E-1,8.242039084E-1,7.562086105E0
9.149067800E-1,4.554968774E-1,-5.692214370E-1,1.067933655E1
9.169043320E-1,3.740940094E-1,1.350928307E0,7.586028099E0
9.189018840E-1,5.991489887E-1,8.678980917E-2,9.515754700E0
9.208994360E-1,7.044938207E-1,-1.526902080E0,1.205839729E1
9.228969880E-1,5.081692934E-1,-7.511807680E-1,1.035372543E1
9.248945410E-1,1.011550203E-1,2.926911712E-1,8.491036415E0
9.268920930E-1,3.932476342E-1,-1.919551253E0,1.099537086E1
9.288896970E-1,3.022679687E-1,-2.187701702E0,1.170884323E1
9.308873530E-1,2.256535143E-1,-3.106476665E-1,8.658630371E0
9.328850610E-1,1.825578809E-1,5.991489887E-1,7.849390507E0
9.348828220E-1,2.208651006E-1,1.168969035E0,7.748833656E0
9.368806340E-1,4.219780564E-1,-7.601590455E-2,1.072243214E1
9.388784990E-1,6.566098332E-1,4.363432527E-1,1.098100567E1
9.408763630E-1,4.842272997E-1,1.485003591E0,1.037287903E1
9.428742280E-1,6.374561787E-1,8.337807655E-1,1.013345909E1
9.448720930E-1,5.608417392E-1,1.073200941E0,9.113529205E0
9.468699570E-1,5.464765429E-1,2.112883031E-1,9.659406662E0
9.488678220E-1,3.501519859E-1,-7.368155718E-1,1.206318569E1
9.508654780E-1,3.214215636E-1,-6.458359361E-1,1.014782429E1
9.528631340E-1,3.645172119E-1,2.831143439E-1,8.141483307E0
9.548607910E-1,2.783259451E-1,8.098387122E-1,8.342596054E0
9.568584470E-1,3.309983909E-1,-5.548562407E-1,1.043512821E1
9.588561030E-1,1.586158574E-1,7.475894690E-1,8.735244751E0
9.608537590E-1,5.656301379E-1,3.411737457E-2,1.065060616E1
9.628514160E-1,6.422445774E-1,2.454056777E-2,1.213501167E1
9.648490720E-1,5.704185367E-1,1.485003591E0,9.994594574E0
9.668467280E-1,6.997054219E-1,1.135450125E0,8.390480042E0
9.688443840E-1,4.890156984E-1,4.363432527E-1,9.688137054E0
9.708420410E-1,3.357867897E-1,5.416881442E-1,8.926780701E0
9.728396970E-1,4.890156984E-1,1.681926697E-1,8.792705536E0
9.748373530E-1,5.560533404E-1,2.591723204E-1,9.419986725E0
9.768350610E-1,6.613982320E-1,-7.320271730E-1,1.036809063E1
9.788328220E-1,5.129576921E-1,-1.478419602E-1,1.062187576E1
9.808306340E-1,5.704185367E-1,4.315548539E-1,1.069849014E1
9.828284470E-1,6.566098332E-1,6.566098332E-1,1.050216579E1
9.848262590E-1,5.321113467E-1,1.403600693E0,8.002618790E0
9.868240720E-1,4.267664552E-1,1.781884670E0,9.032125473E0
9.888218840E-1,2.926911712E-1,2.304419130E-1,1.079904652E1
9.908196970E-1,1.017535757E-2,-2.627636492E-1,1.052131939E1
9.928175090E-1,3.309983909E-1,2.160767019E-1,9.874884605E0
9.948153220E-1,3.597288132E-1,9.965864420E-1,9.008183479E0
9.968131340E-1,4.219780564E-1,1.781884670E0,7.815871239E0
9.988109470E-1,5.416881442E-1,6.422445774E-1,1.055962658E1
1.000808759E0,6.135141850E-1,-4.112041295E-1,1.072722054E1
1.002806572E0,4.842272997E-1,-2.148796022E-1,1.151251888E1
1.004804384E0,5.129576921E-1,6.087257862E-1,8.807070732E0
1.006802197E0,5.273229480E-1,2.208651006E-1,9.712079048E0
1.008800009E0,1.873462796E-1,1.135450125E0,9.142259598E0
1.010797822E0,7.721300423E-2,1.858499050E0,7.964312077E0
1.012795634E0,2.400187254E-1,1.298255920E0,9.161413193E0
1.014793447E0,5.081692934E-1,-2.675520480E-1,1.223556805E1
1.016791259E0,6.087257862E-1,-5.686229095E-2,1.138802052E1
1.018789072E0,6.039373875E-1,1.394023895E0,8.467094421E0
1.020786884E0,2.304419130E-1,1.681328177E0,8.467094421E0
1.022784697E0,3.884592354E-1,8.242039084E-1,9.774328232E0
1.024782249E0,4.842272997E-1,3.836708367E-1,9.736021042E0
1.026779801E0,6.135141850E-1,2.160767019E-1,1.015261269E1
1.028777353E0,3.262099922E-1,-1.286883354E-1,1.075116253E1
1.030774905E0,2.017114908E-1,1.092354536E0,8.730456352E0
1.032772457E0,2.400187254E-1,4.794389009E-1,9.309853554E0
1.034770009E0,4.315548539E-1,-5.452794433E-1,1.155082607E1
1.036767561E0,4.985924959E-1,3.980360329E-1,1.055962658E1
1.038765113E0,3.166331649E-1,1.441908002E0,8.993818283E0
1.040762666E0,1.681926697E-1,1.082777739E0,9.889249802E0
1.042760218E0,7.242459804E-2,1.748365760E0,7.691372871E0
1.044757822E0,2.783259451E-1,1.772307754E0,8.170213699E0
1.046755478E0,5.608417392E-1,1.087566137E0,8.950722694E0
1.048753186E0,4.507084787E-1,-4.249707982E-2,1.053089619E1
1.050750947E0,5.033808947E-1,-5.452794433E-1,1.079425812E1
1.052748759E0,3.740940094E-1,1.250970364E-1,9.046490669E0
1.054746624E0,3.836708367E-1,9.870096445E-1,8.275558472E0
1.056744541E0,3.214215636E-1,6.284779310E-2,9.539696693E0
1.058742509E0,5.321113467E-1,-9.139865041E-1,1.135450172E1
1.060740530E0,5.512649417E-1,-2.813187055E-2,9.841365814E0
1.062738603E0,2.448071241E-1,2.932897024E-2,9.941922188E0
1.064736728E0,2.064998895E-1,4.124012291E-1,9.118317604E0
1.066734853E0,3.262099922E-1,5.033808947E-1,9.544485092E0
1.068732978E0,4.794389009E-1,1.030105233E0,9.563638687E0
1.070731103E0,4.028244317E-1,6.135141850E-1,1.067454815E1
1.072729228E0,3.693056107E-1,1.513733983E0,9.156624794E0
1.074727301E0,4.363432527E-1,7.811083198E-1,9.103952408E0
1.076725009E0,6.135141850E-1,-2.148796022E-1,1.060272217E1
1.078722718E0,3.645172119E-1,-9.187749028E-1,1.059793377E1
1.080720426E0,4.076128304E-1,2.591723204E-1,9.185355186E0
1.082718134E0,5.608417392E-1,1.015740037E0,8.859743118E0
1.084715843E0,4.459200799E-1,1.015740037E0,9.941922188E0
1.086713551E0,4.028244317E-1,4.554968774E-1,1.053568459E1
1.088711259E0,4.842272997E-1,2.831143439E-1,1.017655468E1
1.090708968E0,5.704185367E-1,7.242459804E-2,9.836577415E0
1.092706728E0,4.842272997E-1,3.645172119E-1,9.132682800E0
1.094704541E0,5.656301379E-1,1.303044319E0,7.921216488E0
1.096702405E0,5.704185367E-1,-1.286883354E-1,1.050216579E1
1.098700322E0,4.938040972E-1,-1.191115379E-1,1.011909389E1
1.100698238E0,6.757634282E-1,4.315548539E-1,9.367314339E0
1.102696155E0,5.991489887E-1,1.116296530E0,8.625111580E0
1.104694072E0,1.030105233E0,-4.542997777E-1,1.133055973E1
1.106691988E0,8.625111580E-1,8.529343605E-1,9.424775124E0
1.108689801E0,7.523778677E-1,1.015740037E0,9.477447510E0
1.110687197E0,9.008184075E-1,7.188590765E-1,9.965864182E0
1.112684593E0,5.799953341E-1,6.326677799E-1,1.066497135E1
1.114681988E0,3.836708367E-1,1.092354536E0,9.597157478E0
1.116679384E0,3.980360329E-1,1.173757434E0,8.850166321E0
1.118676780E0,4.698620737E-1,-2.148796022E-1,1.087087250E1
1.120674228E0,6.661866307E-1,-1.579574585E0,1.280059910E1
1.122671728E0,4.076128304E-1,4.848258570E-2,9.544485092E0
1.124669280E0,5.464765429E-1,2.318185806E0,6.752845764E0
1.126666936E0,8.098387122E-1,9.439139962E-1,9.726444244E0
1.128664645E0,8.146271110E-1,1.586158574E-1,1.156040287E1
1.130662405E0,6.135141850E-1,7.715315223E-1,9.870096207E0
1.132660218E0,4.985924959E-1,8.768763542E-1,8.979453087E0
1.134658082E0,5.033808947E-1,3.932476342E-1,9.204508781E0
1.136655999E0,3.118447661E-1,-1.191115379E-1,9.980229378E0
1.138653968E0,4.848258570E-2,-4.542997777E-1,1.079904652E1
1.140651988E0,2.448071241E-1,6.135141850E-1,9.463082314E0
1.142650009E0,4.698620737E-1,1.542464495E0,8.783128738E0
1.144648030E0,3.788824081E-1,7.667431235E-1,1.099058247E1
1.146646051E0,3.118447661E-1,2.454056777E-2,1.064581776E1
1.148644020E0,2.591723204E-1,5.805939063E-2,9.209297180E0
1.150641780E0,3.022679687E-1,2.454056777E-2,9.855731010E0
1.152639488E0,9.157821536E-2,-1.861491799E-1,1.070806694E1
1.154637145E0,1.777694821E-1,1.475426793E0,7.863755703E0
1.156634801E0,3.405751884E-1,9.917980433E-1,9.434351921E0
1.158632457E0,4.124012291E-1,8.098387122E-1,1.014782429E1
1.160630113E0,1.969230920E-1,1.882441044E0,8.534132004E0
1.162627770E0,4.746504724E-1,1.480215192E0,9.247604370E0
1.164625426E0,5.368997455E-1,1.634042710E-1,1.065539455E1
1.166623082E0,3.070563674E-1,-4.189853091E-3,1.006642151E1
1.168620738E0,2.543839216E-1,1.231218219E0,7.590816498E0
1.170618395E0,2.495955229E-1,-1.478419602E-1,1.088044930E1
1.172616051E0,2.783259451E-1,-2.962824702E-1,1.183813000E1
1.174613707E0,-1.376665942E-2,1.552041292E0,8.653841972E0
1.176611363E0,3.890577704E-2,2.030881643E0,7.782352448E0
1.178609020E0,5.805939063E-2,1.877652645E0,8.687360764E0
1.180606676E0,6.763619930E-2,5.177460909E-1,1.121563816E1
1.182604332E0,8.200141042E-2,1.681926697E-1,1.025795746E1
1.184601988E0,-1.376665942E-2,4.794389009E-1,9.941922188E0
1.186599645E0,-2.148796022E-1,3.501519859E-1,9.386467934E0
1.188597301E0,3.890577704E-2,6.518214345E-1,9.544485092E0
1.190594957E0,-4.728548229E-2,1.039682031E0,9.999382973E0
1.192592613E0,1.203086376E-1,6.613982320E-1,1.010472870E1
1.194590270E0,-2.962824702E-1,6.087257862E-1,9.381679535E0
1.196587926E0,-3.250128925E-1,6.374561787E-1,9.558850288E0
1.198585582E0,-6.266822815E-1,1.623867273E0,8.318654060E0
1.200583238E0,-3.298012912E-1,1.963843942E0,8.198944092E0
1.202580895E0,-2.005143911E-1,4.459200799E-1,1.138323212E1
1.204578447E0,-2.340332121E-1,2.112883031E-1,1.212543488E1
1.206575895E0,-6.410474777E-1,2.653373957E0,7.777564049E0
1.208573343E0,-7.846996188E-1,3.041234732E0,7.384915352E0
1.210570791E0,-6.266822815E-1,2.078765631E0,8.869319916E0
1.212568238E0,-2.675520480E-1,1.729810685E-1,1.212064648E1
1.214565686E0,-3.776853085E-1,3.309983909E-1,1.166574764E1
1.216563134E0,-6.841431260E-1,1.552041292E0,9.032125473E0
1.218560582E0,-6.075286865E-1,1.666962981E0,8.203732491E0
1.220558030E0,-2.771288455E-1,4.028244317E-1,1.004726696E1
1.222555478E0,-2.627636492E-1,-1.028908134E0,1.276708031E1
1.224552978E0,-4.351461530E-1,3.309983909E-1,1.028189945E1
1.226550530E0,-4.495113790E-1,1.370081902E0,9.127894402E0
1.228548134E0,-4.830302000E-1,3.165733099E0,7.068880558E0
1.230545791E0,-5.165489912E-1,2.758718967E0,8.438364029E0
1.232543499E0,-3.250128925E-1,1.245583415E0,1.111508179E1
1.234541259E0,-4.112041295E-1,2.831143439E-1,1.136886692E1
1.236539072E0,-4.159925580E-1,-2.483984232E-1,1.102410126E1
1.238536936E0,-2.819172442E-1,1.020528436E0,8.936357498E0
1.240534853E0,-1.669955701E-1,1.475426793E0,8.950722694E0
1.242532822E0,-2.005143911E-1,2.059612036E0,9.668983459E0
1.244530843E0,-1.238999367E-1,1.346139908E0,1.034893703E1
1.246528916E0,-1.526303589E-1,8.960300088E-1,1.073200893E1
1.248526988E0,-3.010708690E-1,1.341351509E0,1.030105305E1
1.250525061E0,-6.554127336E-1,1.920748353E0,1.029626465E1
1.252523082E0,-7.799112201E-1,2.768295765E0,8.227674484E0
1.254520582E0,-3.920505345E-1,1.360505104E0,1.118211937E1
1.256518082E0,-4.399345517E-1,9.343371987E-1,1.222599125E1
1.258515582E0,-6.793547273E-1,1.868075848E0,9.372102737E0
1.260512978E0,-6.697779298E-1,1.839345455E0,9.352949142E0
1.262510374E0,-6.266822815E-1,1.020528436E0,1.089002609E1
1.264507770E0,-7.032967210E-1,8.577227592E-1,1.139759731E1
1.266505166E0,-1.014542937E0,1.379658699E0,9.467870712E0
1.268502561E0,-1.081580639E0,1.944690347E0,7.902062893E0
1.270499957E0,-7.942764163E-1,1.101931334E0,9.759963036E0
1.272497353E0,-5.357026458E-1,4.124012291E-1,1.077031612E1
1.274494749E0,-8.852560520E-1,4.746504724E-1,9.745597839E0
1.276492145E0,-9.762357473E-1,1.384447098E0,7.988254070E0
1.278489541E0,-6.554127336E-1,1.518522382E0,7.413645744E0
1.280486988E0,-5.117605925E-1,8.768763542E-1,8.495824814E0
1.282484488E0,-7.894880176E-1,4.554968774E-1,9.180566788E0
1.284482041E0,-5.644330382E-1,-1.143231317E-1,1.006163311E1
1.286479645E0,-4.686649740E-1,-5.213374496E-1,1.076073933E1
1.288477301E0,-4.782418013E-1,2.735375464E-1,8.620323181E0
1.290475009E0,-5.787982345E-1,9.636662155E-2,8.198944092E0
1.292472770E0,-4.734533727E-1,-4.255693555E-1,9.214085579E0
1.294470634E0,-4.495113790E-1,-1.162983418E0,1.089481449E1
1.296468551E0,-3.824737072E-1,-7.990648150E-1,9.841365814E0
1.298466520E0,-3.585317135E-1,-1.143231317E-1,9.434351921E0
1.300464541E0,-4.638765752E-1,-5.207388848E-2,9.142259598E0
1.302462613E0,-2.531868219E-1,-5.165489912E-1,1.013345909E1
1.304460738E0,-1.855506375E-2,-1.306635618E0,1.178545761E1
1.306458863E0,-3.770867735E-2,3.501519859E-1,8.002618790E0
1.308456988E0,-9.038111567E-2,2.208651006E-1,8.979453087E0
1.310455009E0,5.327098817E-2,2.256535143E-1,8.677783966E0
1.312452561E0,2.112883031E-1,-4.159925580E-1,1.093312168E1
1.314450113E0,1.873462796E-1,-4.064157307E-1,1.004726696E1
1.316447666E0,2.974795699E-1,-2.914940715E-1,9.783905029E0
1.318445218E0,2.400187254E-1,-1.574187577E-1,1.029147625E1
1.320442770E0,2.974795699E-1,2.400187254E-1,9.429563522E0
1.322440322E0,2.974795699E-1,1.681926697E-1,9.688137054E0
1.324437874E0,3.693056107E-1,3.890577704E-2,9.798270226E0
1.326435478E0,2.687491477E-1,-5.979518890E-1,1.086608410E1
1.328433134E0,1.059434265E-1,1.011550203E-1,8.423998833E0
1.330430791E0,3.214215636E-1,-4.112041295E-1,1.043512821E1
1.332428447E0,4.267664552E-1,7.242459804E-2,9.683348656E0
1.334426155E0,2.352303118E-1,9.157821536E-2,1.006163311E1
1.336423863E0,-1.376665942E-2,1.729810685E-1,9.185355186E0
1.338421624E0,-3.770867735E-2,1.634042710E-1,9.515754700E0
1.340419384E0,-3.292027488E-2,4.171896577E-1,8.476671219E0
1.342417145E0,7.242459804E-2,-3.681085110E-1,9.750386238E0
1.344414905E0,1.729810685E-1,-9.331400990E-1,1.141196251E1
1.346412666E0,-3.770867735E-2,-4.159925580E-1,1.021486187E1
1.348410426E0,9.157821536E-2,-4.447229803E-1,1.011909389E1
1.350408186E0,2.304419130E-1,-3.824737072E-1,1.023880386E1
1.352405947E0,1.825578809E-1,-3.106476665E-1,1.099058247E1
1.354403707E0,1.059434265E-1,3.884592354E-1,9.798270226E0
1.356401468E0,-5.207388848E-2,3.932476342E-1,9.036913872E0
1.358399228E0,-2.053027898E-1,8.200141042E-2,9.190143585E0
1.360396988E0,-2.627636492E-1,-5.207388848E-2,1.004247856E1
1.362394749E0,-4.495113790E-1,-2.005143911E-1,1.016218948E1
1.364392509E0,-3.489548862E-1,9.157821536E-2,9.482235909E0
1.366390270E0,-3.633201122E-1,1.011550203E-1,9.386467934E0
1.368387926E0,-2.244564146E-1,-5.404910445E-1,1.049258900E1
1.370385582E0,-2.005143911E-1,-5.309142470E-1,1.008078671E1
1.372383186E0,-3.010708690E-1,-8.325836658E-1,9.999382973E0
1.374380791E0,-3.776853085E-1,-5.357026458E-1,9.587580681E0
1.376378395E0,-2.388216257E-1,-4.973953962E-1,9.554061890E0
1.378375999E0,-2.723404467E-1,-4.638765752E-1,9.376891136E0
1.380373603E0,-4.249707982E-2,-9.714473486E-1,1.054526138E1
1.382371207E0,-2.100912035E-1,-7.601590455E-2,8.079233170E0
1.384368655E0,-6.165069342E-2,-4.064157307E-1,8.677783966E0
1.386366103E0,-8.559270948E-2,-9.762357473E-1,9.372102737E0
1.388363551E0,4.369417951E-2,-1.167771935E0,9.070432663E0
1.390360999E0,1.681926697E-1,-1.330577612E0,9.410409927E0
1.392358499E0,1.921346933E-1,-1.282693505E0,8.208520889E0
1.394356051E0,6.326677799E-1,-1.909974456E0,1.036809063E1
1.396353655E0,6.518214345E-1,-1.972223639E0,9.831789017E0
1.398351311E0,6.278793812E-1,-1.847725153E0,1.049258900E1
1.400349020E0,4.602852762E-1,-1.311424017E0,9.419986725E0
1.402346780E0,4.794389009E-1,-1.201290727E0,8.811859131E0
1.404344593E0,6.997054219E-1,-1.771110654E0,1.017655468E1
1.406342457E0,8.002619147E-1,-1.268328309E0,9.726444244E0
1.408340374E0,7.428010702E-1,-5.931634903E-1,8.299500465E0
1.410338343E0,6.661866307E-1,-1.258751512E0,1.062187576E1
1.412336363E0,8.050503135E-1,-2.091933727E0,1.194347477E1
1.414334384E0,5.033808947E-1,-1.464652896E0,1.045428181E1
1.416332405E0,4.938040972E-1,-1.057638645E0,9.285911560E0
1.418330426E0,5.321113467E-1,-1.273116708E0,9.932345390E0
1.420328447E0,4.411316514E-1,-1.124676228E0,9.410409927E0
1.422326468E0,4.746504724E-1,-1.330577612E0,9.817423820E0
1.424324488E0,5.943605900E-1,-1.694496274E0,1.174236202E1
1.426322509E0,5.464765429E-1,-1.402403593E0,8.998606682E0
1.428320374E0,6.135141850E-1,-2.015319347E0,1.050216579E1
1.430318186E0,4.794389009E-1,-2.010530949E0,1.084214211E1
1.432315999E0,4.171896577E-1,-1.536478996E0,9.305065155E0
1.434313811E0,1.921346933E-1,-1.632246971E0,8.778340340E0
1.436311624E0,-6.165069342E-2,-2.015319347E0,9.640253067E0
1.438309436E0,-2.723404467E-1,-1.953070045E0,9.300276756E0
1.440307249E0,-4.782418013E-1,-2.202066898E0,9.812635422E0
1.442305061E0,-5.644330382E-1,-2.144606113E0,9.755174637E0
1.444302874E0,-5.931634903E-1,-3.140594006E0,1.242231560E1
1.446300686E0,-5.740098357E-1,-1.273116708E0,7.791929245E0
1.448298499E0,-3.728969097E-1,-2.360084295E0,1.034414864E1
1.450296311E0,-3.393780887E-1,-2.173336506E0,1.000895977E1
1.452294124E0,-5.357026458E-1,-1.876455545E0,9.276334763E0
1.454291936E0,-5.692214370E-1,-1.713649869E0,9.218873978E0
1.456289749E0,-4.590881765E-1,-2.565985680E0,1.099537086E1
1.458287561E0,-5.404910445E-1,-1.948281646E0,9.285911560E0
1.460285374E0,-4.399345517E-1,-1.656189084E0,8.883685112E0
1.462283186E0,-2.914940715E-1,-2.388814688E0,9.860519409E0
1.464280999E0,-8.080431074E-2,-2.757521868E0,1.071764374E1
1.466278811E0,-1.143231317E-1,-1.953070045E0,9.060855865E0
1.468276520E0,-1.047463268E-1,-1.809417963E0,8.888473511E0
1.470274072E0,-2.531868219E-1,-2.020107746E0,9.218873978E0
1.472271624E0,-2.100912035E-1,-2.211643934E0,1.001853657E1
1.474269176E0,-1.622071713E-1,-1.833359957E0,8.898050308E0
1.476266728E0,-1.191115379E-1,-2.254739523E0,9.170989990E0
1.478264280E0,-3.292027488E-2,-2.767098665E0,1.059314537E1
1.480261832E0,2.112883031E-1,-2.293046713E0,9.616311073E0
1.482259436E0,2.687491477E-1,-2.091933727E0,8.965087891E0
1.484257093E0,3.501519859E-1,-2.618658066E0,9.836577415E0
1.486254801E0,3.645172119E-1,-3.145382404E0,1.134013653E1
1.488252561E0,5.321113467E-1,-2.767098665E0,1.066975975E1
1.490250374E0,3.693056107E-1,-2.302623510E0,9.539696693E0
1.492248238E0,3.597288132E-1,-2.321777105E0,9.123106003E0
1.494246155E0,2.495955229E-1,-2.106298923E0,8.783128738E0
1.496244124E0,2.783259451E-1,-2.455852509E0,1.000895977E1
1.498242145E0,4.985924959E-1,-2.570774078E0,9.788693428E0
1.500240218E0,4.938040972E-1,-2.379237890E0,9.261969566E0
1.502238291E0,5.177460909E-1,-2.704849482E0,1.002332497E1
1.504236363E0,4.650736749E-1,-2.867655039E0,1.015740108E1
1.506234436E0,2.974795699E-1,-2.882020235E0,9.329007149E0
1.508232509E0,2.639607489E-1,-3.638587952E0,1.068412495E1
1.510230582E0,1.442506462E-1,-2.838924646E0,8.672995567E0
1.512228655E0,5.985504249E-4,-2.321777105E0,8.826224327E0
1.514226728E0,-5.207388848E-2,-2.575562477E0,8.869319916E0
1.516224801E0,1.017535757E-2,-3.753509760E0,1.118211937E1
1.518222770E0,-1.717839688E-1,-3.250727415E0,9.692925453E0
1.520220270E0,-2.340332121E-1,-3.217208624E0,8.845377922E0
1.522217770E0,-3.393780887E-1,-3.523666382E0,9.080010414E0
1.524215270E0,-1.574187577E-1,-4.136581898E0,1.051653099E1
1.526212770E0,-1.382651478E-1,-4.059967518E0,1.055962658E1
1.528210270E0,-1.526303589E-1,-3.389590979E0,8.519766808E0
1.530207770E0,5.805939063E-2,-3.667318344E0,9.156624794E0
1.532205322E0,2.495955229E-1,-4.385579109E0,1.019570827E1
1.534202926E0,1.250970364E-1,-4.012083530E0,9.324218750E0
