"Time (s)","Acceleration x (m/s^2)","Acceleration y (m/s^2)","Acceleration z (m/s^2)"
1.433610800E-2,6.284779310E-2,4.028244317E-1,9.879673004E0
1.633454600E-2,3.411737457E-2,3.836708367E-1,9.860519409E0
1.833298300E-2,2.454056777E-2,3.597288132E-1,9.860519409E0
2.033142100E-2,-8.978256024E-3,3.693056107E-1,9.850942612E0
2.232985800E-2,-5.686229095E-2,3.740940094E-1,9.855731010E0
2.432829600E-2,-6.643909961E-2,3.932476342E-1,9.831789017E0
2.632673300E-2,-8.559270948E-2,3.884592354E-1,9.841365814E0
2.832517100E-2,-7.122749835E-2,3.788824081E-1,9.836577415E0
3.032360800E-2,-5.686229095E-2,3.405751884E-1,9.836577415E0
3.232204600E-2,-4.728548229E-2,3.309983909E-1,9.817423820E0
3.432048300E-2,-4.189853091E-3,3.405751884E-1,9.803058624E0
3.631892100E-2,-4.189853091E-3,3.309983909E-1,9.822212219E0
3.831735800E-2,-1.376665942E-2,3.453635871E-1,9.841365814E0
4.031579600E-2,-5.207388848E-2,3.453635871E-1,9.812635422E0
4.231423300E-2,-3.292027488E-2,3.357867897E-1,9.774328232E0
4.431267100E-2,-3.292027488E-2,3.118447661E-1,9.716867447E0
4.631110800E-2,-4.189853091E-3,3.070563674E-1,9.678560257E0
4.830954600E-2,-1.376665942E-2,3.022679687E-1,9.678560257E0
5.030798300E-2,-4.189853091E-3,2.926911712E-1,9.673771858E0
5.230642100E-2,-1.376665942E-2,2.879027426E-1,9.678560257E0
5.430485800E-2,-1.376665942E-2,2.926911712E-1,9.678560257E0
5.630329600E-2,-4.189853091E-3,2.879027426E-1,9.649829865E0
5.830173300E-2,-1.376665942E-2,2.926911712E-1,9.630676270E0
6.030017100E-2,5.386953708E-3,2.783259451E-1,9.616311073E0
6.229860800E-2,5.386953708E-3,2.879027426E-1,9.649829865E0
6.429704600E-2,2.454056777E-2,2.974795699E-1,9.649829865E0
6.629548300E-2,2.454056777E-2,2.687491477E-1,9.625887871E0
6.829392100E-2,2.932897024E-2,2.735375464E-1,9.630676270E0
7.029235800E-2,4.848258570E-2,2.735375464E-1,9.645041466E0
7.229079600E-2,5.327098817E-2,2.687491477E-1,9.635464668E0
7.428918100E-2,6.284779310E-2,2.639607489E-1,9.654618263E0
7.628756600E-2,7.242459804E-2,2.591723204E-1,9.654618263E0
7.828595200E-2,7.242459804E-2,2.543839216E-1,9.664195061E0
8.028433700E-2,4.848258570E-2,2.687491477E-1,9.683348656E0
8.228272300E-2,6.284779310E-2,2.831143439E-1,9.673771858E0
8.428110800E-2,4.369417951E-2,2.831143439E-1,9.673771858E0
8.627949300E-2,1.496376097E-2,2.974795699E-1,9.697713852E0
8.827793100E-2,5.985504249E-4,2.974795699E-1,9.697713852E0
9.027642100E-2,-1.855506375E-2,3.022679687E-1,9.673771858E0
9.227496200E-2,-4.728548229E-2,3.070563674E-1,9.673771858E0
9.427355600E-2,-5.686229095E-2,3.501519859E-1,9.673771858E0
9.627220200E-2,-8.559270948E-2,3.453635871E-1,9.697713852E0
9.827090000E-2,-1.143231317E-1,3.740940094E-1,9.716867447E0
1.002696500E-1,-1.286883354E-1,4.076128304E-1,9.745597839E0
1.022684520E-1,-1.574187577E-1,4.124012291E-1,9.755174637E0
1.042672540E-1,-1.765723825E-1,4.124012291E-1,9.745597839E0
1.062660560E-1,-1.861491799E-1,3.980360329E-1,9.736021042E0
1.082648580E-1,-1.861491799E-1,4.171896577E-1,9.736021042E0
1.102636600E-1,-1.574187577E-1,4.076128304E-1,9.745597839E0
1.122622540E-1,-1.622071713E-1,4.028244317E-1,9.712079048E0
1.142607430E-1,-1.191115379E-1,4.411316514E-1,9.692925453E0
1.162591810E-1,-8.559270948E-2,4.363432527E-1,9.673771858E0
1.182576180E-1,-4.728548229E-2,4.171896577E-1,9.673771858E0
1.202560560E-1,-3.770867735E-2,4.171896577E-1,9.702502251E0
1.222544930E-1,-2.334346622E-2,4.124012291E-1,9.721655846E0
1.242529310E-1,-4.189853091E-3,4.459200799E-1,9.707290649E0
1.262513680E-1,-8.978256024E-3,4.794389009E-1,9.678560257E0
1.282498060E-1,-3.770867735E-2,4.890156984E-1,9.673771858E0
1.302482430E-1,-3.292027488E-2,5.033808947E-1,9.654618263E0
1.322466810E-1,-4.189853091E-3,5.129576921E-1,9.606734276E0
1.342451180E-1,-6.165069342E-2,5.368997455E-1,9.683348656E0
1.362435560E-1,-6.165069342E-2,5.464765429E-1,9.836577415E0
1.382419930E-1,-4.249707982E-2,5.368997455E-1,9.850942612E0
1.402404310E-1,-3.770867735E-2,5.608417392E-1,9.793481827E0
1.422388680E-1,-5.686229095E-2,5.608417392E-1,9.716867447E0
1.442373060E-1,-8.978256024E-3,5.560533404E-1,9.621099472E0
1.462357430E-1,5.386953708E-3,5.273229480E-1,9.601945877E0
1.482342330E-1,2.454056777E-2,5.273229480E-1,9.673771858E0
1.502327750E-1,4.369417951E-2,5.416881442E-1,9.716867447E0
1.522313680E-1,1.975216344E-2,5.560533404E-1,9.716867447E0
1.542300140E-1,5.386953708E-3,5.416881442E-1,9.683348656E0
1.562287120E-1,3.411737457E-2,5.799953341E-1,9.625887871E0
1.582274100E-1,1.975216344E-2,5.847837925E-1,9.621099472E0
1.602261080E-1,3.411737457E-2,5.895721912E-1,9.606734276E0
1.622248060E-1,4.848258570E-2,6.230909824E-1,9.587580681E0
1.642235040E-1,5.327098817E-2,6.326677799E-1,9.592369080E0
1.662222020E-1,5.805939063E-2,6.183025837E-1,9.601945877E0
1.682209000E-1,8.678980917E-2,6.661866307E-1,9.601945877E0
1.702195980E-1,7.721300423E-2,6.709750295E-1,9.592369080E0
1.722182960E-1,9.157821536E-2,7.523778677E-1,9.616311073E0
1.742169930E-1,9.636662155E-2,7.811083198E-1,9.625887871E0
1.762156910E-1,1.011550203E-1,7.763199210E-1,9.635464668E0
1.782143890E-1,6.763619930E-2,8.050503135E-1,9.688137054E0
1.802129830E-1,6.763619930E-2,8.194155097E-1,9.726444244E0
1.822115250E-1,7.721300423E-2,8.098387122E-1,9.731232643E0
1.842100660E-1,4.848258570E-2,8.050503135E-1,9.755174637E0
1.862086080E-1,1.975216344E-2,8.050503135E-1,9.798270226E0
1.882070980E-1,5.386953708E-3,8.385691643E-1,9.822212219E0
1.902055870E-1,-3.292027488E-2,8.672995567E-1,9.807847023E0
1.922040770E-1,-8.978256024E-3,8.960300088E-1,9.793481827E0
1.942025660E-1,-4.189853091E-3,9.103952050E-1,9.827000618E0
1.962010560E-1,-1.855506375E-2,8.912416101E-1,9.774328232E0
1.981995460E-1,-5.207388848E-2,9.151836038E-1,9.740809441E0
2.001980350E-1,-4.728548229E-2,8.912416101E-1,9.745597839E0
2.021965250E-1,-4.728548229E-2,8.481459618E-1,9.807847023E0
2.041950140E-1,-4.249707982E-2,8.289923668E-1,9.836577415E0
2.061935040E-1,-4.728548229E-2,8.194155097E-1,9.822212219E0
2.081919930E-1,-3.770867735E-2,8.672995567E-1,9.798270226E0
2.101904830E-1,-8.978256024E-3,9.056068063E-1,9.788693428E0
2.121889730E-1,-4.189853091E-3,8.720879555E-1,9.807847023E0
2.141874620E-1,3.411737457E-2,8.864531517E-1,9.817423820E0
2.161860040E-1,3.411737457E-2,8.625111580E-1,9.865307808E0
2.181845980E-1,5.327098817E-2,8.672995567E-1,9.879673004E0
2.201832430E-1,7.721300423E-2,9.056068063E-1,9.850942612E0
2.221819410E-1,3.411737457E-2,8.816647530E-1,9.836577415E0
2.241806390E-1,1.496376097E-2,8.960300088E-1,9.812635422E0
2.261793370E-1,-1.855506375E-2,8.960300088E-1,9.764751434E0
2.281780350E-1,-8.978256024E-3,8.625111580E-1,9.817423820E0
2.301767330E-1,5.386953708E-3,8.002619147E-1,9.903614998E0
2.321754310E-1,-1.376665942E-2,7.954735160E-1,9.946710587E0
2.341741290E-1,1.975216344E-2,8.098387122E-1,9.956287384E0
2.361727750E-1,2.454056777E-2,8.577227592E-1,9.961075783E0
2.381711600E-1,4.369417951E-2,9.678560495E-1,9.783905029E0
2.401695460E-1,-8.978256024E-3,9.726444483E-1,9.664195061E0
2.421679310E-1,-3.770867735E-2,9.630676508E-1,9.798270226E0
2.441663160E-1,-5.207388848E-2,8.864531517E-1,9.841365814E0
2.461647020E-1,-5.686229095E-2,8.337807655E-1,9.889249802E0
2.481630870E-1,-4.728548229E-2,8.337807655E-1,9.850942612E0
2.501614210E-1,-1.376665942E-2,8.672995567E-1,9.731232643E0
2.521597020E-1,2.932897024E-2,7.858967185E-1,9.846154213E0
2.541579830E-1,4.369417951E-2,7.428010702E-1,9.779116631E0
2.561562640E-1,4.369417951E-2,7.763199210E-1,9.822212219E0
2.581545460E-1,5.327098817E-2,8.098387122E-1,9.812635422E0
2.601528270E-1,3.411737457E-2,7.954735160E-1,9.898826599E0
2.621511080E-1,2.932897024E-2,8.433575630E-1,9.898826599E0
2.641493890E-1,2.454056777E-2,8.625111580E-1,9.716867447E0
2.661477230E-1,-1.376665942E-2,8.146271110E-1,9.630676270E0
2.681461080E-1,5.386953708E-3,8.529343605E-1,9.668983459E0
2.701445460E-1,1.017535757E-2,8.242039084E-1,9.597157478E0
2.721430350E-1,4.848258570E-2,8.385691643E-1,9.621099472E0
2.741415770E-1,1.394622475E-1,8.002619147E-1,9.597157478E0
2.761401710E-1,1.538274586E-1,7.763199210E-1,9.467870712E0
2.781388160E-1,1.059434265E-1,7.428010702E-1,9.357737541E0
2.801375140E-1,1.107318252E-1,7.236474752E-1,9.324218750E0
2.821362120E-1,7.721300423E-2,6.326677799E-1,9.357737541E0
2.841349100E-1,1.107318252E-1,4.938040972E-1,9.372102737E0
2.861336080E-1,1.250970364E-1,4.076128304E-1,9.443928719E0
2.881323060E-1,1.634042710E-1,4.315548539E-1,9.410409927E0
2.901310040E-1,2.017114908E-1,4.698620737E-1,9.214085579E0
2.921297020E-1,2.017114908E-1,5.368997455E-1,9.147047997E0
2.941284000E-1,1.921346933E-1,4.698620737E-1,9.180566788E0
2.961270980E-1,2.304419130E-1,4.028244317E-1,9.463082314E0
2.981257960E-1,2.017114908E-1,4.315548539E-1,9.405621529E0
3.001242850E-1,1.394622475E-1,4.698620737E-1,9.257181168E0
3.021227750E-1,1.250970364E-1,5.464765429E-1,9.194931984E0
3.041212640E-1,1.155202314E-1,5.416881442E-1,9.305065155E0
3.061197540E-1,1.394622475E-1,5.129576921E-1,9.443928719E0
3.081182430E-1,1.634042710E-1,5.177460909E-1,9.597157478E0
3.101167330E-1,1.634042710E-1,4.650736749E-1,9.635464668E0
3.121152230E-1,1.825578809E-1,5.799953341E-1,9.554061890E0
3.141137120E-1,1.729810685E-1,6.757634282E-1,9.616311073E0
3.161122020E-1,1.490390599E-1,7.619546652E-1,9.678560257E0
3.181106910E-1,1.490390599E-1,7.906851172E-1,9.692925453E0
3.201091810E-1,1.442506462E-1,8.768763542E-1,9.621099472E0
3.221076710E-1,1.155202314E-1,8.864531517E-1,9.601945877E0
3.241061600E-1,4.848258570E-2,8.337807655E-1,9.721655846E0
3.261046500E-1,5.386953708E-3,7.428010702E-1,9.961075783E0
3.281031390E-1,5.985504249E-4,7.954735160E-1,9.985017776E0
3.301016290E-1,5.805939063E-2,8.529343605E-1,9.927556992E0
3.321001180E-1,2.932897024E-2,8.242039084E-1,9.841365814E0
3.340986080E-1,3.890577704E-2,8.242039084E-1,9.889249802E0
3.360970980E-1,4.369417951E-2,8.672995567E-1,9.807847023E0
3.380956390E-1,7.721300423E-2,8.194155097E-1,9.894038200E0
3.400941810E-1,1.250970364E-1,7.858967185E-1,9.951498985E0
3.420927230E-1,1.490390599E-1,7.954735160E-1,9.898826599E0
3.440912640E-1,1.825578809E-1,8.816647530E-1,9.731232643E0
3.460898060E-1,1.777694821E-1,7.954735160E-1,9.822212219E0
3.480883480E-1,2.112883031E-1,7.523778677E-1,1.003290176E1
3.500868890E-1,2.783259451E-1,7.811083198E-1,1.016218948E1
3.520854310E-1,2.974795699E-1,8.242039084E-1,9.980229378E0
3.540839730E-1,2.352303118E-1,8.385691643E-1,1.000417137E1
3.560825140E-1,2.017114908E-1,8.720879555E-1,1.005684471E1
3.580810560E-1,1.490390599E-1,9.056068063E-1,1.001374817E1
3.600795980E-1,6.763619930E-2,8.625111580E-1,9.927556992E0
3.620781390E-1,-3.770867735E-2,7.715315223E-1,1.012867069E1
3.640766810E-1,-7.601590455E-2,7.715315223E-1,1.021007347E1
3.660752230E-1,-9.516951442E-2,7.763199210E-1,1.012388229E1
3.680737640E-1,-1.334767491E-1,7.380126715E-1,9.994594574E0
3.700723060E-1,-1.526303589E-1,7.667431235E-1,9.850942612E0
3.720709000E-1,-1.669955701E-1,6.853402257E-1,9.855731010E0
3.740695460E-1,-1.334767491E-1,5.752069354E-1,1.003290176E1
3.760681910E-1,-8.559270948E-2,5.991489887E-1,1.015261269E1
3.780668890E-1,-3.292027488E-2,6.422445774E-1,1.014782429E1
3.800656390E-1,1.017535757E-2,6.374561787E-1,9.975440979E0
3.820643890E-1,5.985504249E-4,5.799953341E-1,9.803058624E0
3.840631390E-1,-3.770867735E-2,5.943605900E-1,9.822212219E0
3.860618890E-1,-1.855506375E-2,6.805518270E-1,9.822212219E0
3.880606390E-1,7.242459804E-2,6.757634282E-1,9.678560257E0
3.900593890E-1,1.203086376E-1,6.374561787E-1,9.707290649E0
3.920581390E-1,1.298854351E-1,5.895721912E-1,9.736021042E0
3.940568890E-1,1.777694821E-1,6.518214345E-1,9.755174637E0
3.960554830E-1,1.490390599E-1,6.278793812E-1,9.803058624E0
3.980540250E-1,1.059434265E-1,5.752069354E-1,9.731232643E0
4.000524620E-1,1.975216344E-2,4.985924959E-1,9.721655846E0
4.020509000E-1,1.017535757E-2,5.512649417E-1,9.721655846E0
4.040493370E-1,5.985504249E-4,5.464765429E-1,9.640253067E0
4.060477750E-1,-4.189853091E-3,5.177460909E-1,9.582792282E0
4.080462640E-1,-8.978256024E-3,5.608417392E-1,9.654618263E0
4.100448060E-1,5.805939063E-2,4.267664552E-1,9.630676270E0
4.120434000E-1,6.763619930E-2,4.315548539E-1,9.726444244E0
4.140420460E-1,1.538274586E-1,5.368997455E-1,9.870096207E0
4.160407960E-1,1.969230920E-1,5.752069354E-1,9.649829865E0
4.180396500E-1,1.729810685E-1,5.368997455E-1,9.429563522E0
4.200385560E-1,2.017114908E-1,4.842272997E-1,9.530119896E0
4.220375140E-1,2.639607489E-1,5.656301379E-1,9.563638687E0
4.240365250E-1,2.687491477E-1,5.656301379E-1,9.534908295E0
4.260355870E-1,2.400187254E-1,5.847837925E-1,9.396044731E0
4.280346500E-1,1.969230920E-1,4.842272997E-1,9.362525940E0
4.300337120E-1,1.203086376E-1,4.028244317E-1,9.309853554E0
4.320323580E-1,4.848258570E-2,3.597288132E-1,9.266757965E0
4.340306910E-1,3.890577704E-2,3.309983909E-1,9.300276756E0
4.360290250E-1,-4.189853091E-3,2.687491477E-1,9.319430351E0
4.380273580E-1,-5.686229095E-2,2.495955229E-1,9.429563522E0
4.400256910E-1,-2.334346622E-2,3.357867897E-1,9.434351921E0
4.420240250E-1,-2.813187055E-2,3.166331649E-1,9.396044731E0
4.440224100E-1,-7.122749835E-2,3.022679687E-1,9.439140320E0
4.460208480E-1,-6.643909961E-2,3.740940094E-1,9.510966301E0
4.480193370E-1,-8.559270948E-2,3.932476342E-1,9.501389503E0
4.500178790E-1,-9.038111567E-2,4.219780564E-1,9.515754700E0
4.520164730E-1,-5.686229095E-2,4.411316514E-1,9.463082314E0
4.540151180E-1,-6.643909961E-2,4.650736749E-1,9.506177902E0
4.560138160E-1,-8.080431074E-2,5.416881442E-1,9.520543098E0
4.580125660E-1,-7.601590455E-2,5.177460909E-1,9.573215485E0
4.600113160E-1,-7.122749835E-2,5.129576921E-1,9.621099472E0
4.620100660E-1,-8.978256024E-3,5.464765429E-1,9.668983459E0
4.640088160E-1,2.932897024E-2,5.943605900E-1,9.668983459E0
4.660075660E-1,4.369417951E-2,6.135141850E-1,9.635464668E0
4.680063160E-1,8.678980917E-2,6.853402257E-1,9.664195061E0
4.700050660E-1,1.203086376E-1,6.901286244E-1,9.530119896E0
4.720038160E-1,1.298854351E-1,7.140706778E-1,9.625887871E0
4.740023580E-1,1.490390599E-1,7.954735160E-1,9.827000618E0
4.760006910E-1,1.634042710E-1,8.385691643E-1,9.798270226E0
4.779990250E-1,1.825578809E-1,8.146271110E-1,9.745597839E0
4.799972020E-1,1.394622475E-1,8.577227592E-1,9.697713852E0
4.819953790E-1,1.346738487E-1,8.720879555E-1,9.664195061E0
4.839935560E-1,1.490390599E-1,9.056068063E-1,9.683348656E0
4.859917330E-1,1.442506462E-1,8.720879555E-1,9.692925453E0
4.879899100E-1,1.107318252E-1,8.002619147E-1,9.884461403E0
4.899880870E-1,1.586158574E-1,8.433575630E-1,9.999382973E0
4.919862640E-1,1.586158574E-1,9.343371987E-1,9.855731010E0
4.939844410E-1,1.538274586E-1,8.816647530E-1,9.779116631E0
4.959826180E-1,1.681926697E-1,9.295488000E-1,9.803058624E0
4.979807960E-1,1.825578809E-1,9.391255975E-1,9.774328232E0
4.999789730E-1,1.777694821E-1,8.625111580E-1,9.913191795E0
5.019771500E-1,2.112883031E-1,9.247604012E-1,1.011430550E1
5.039753270E-1,2.352303118E-1,1.025316834E0,1.002811337E1
5.059735560E-1,2.543839216E-1,1.087566137E0,9.779116631E0
5.079717850E-1,1.921346933E-1,1.030105233E0,9.692925453E0
5.099700660E-1,1.538274586E-1,1.025316834E0,9.798270226E0
5.119684000E-1,1.298854351E-1,1.054047346E0,9.903614998E0
5.139667850E-1,1.250970364E-1,9.822212458E-1,9.822212219E0
5.159652230E-1,3.411737457E-2,9.247604012E-1,9.836577415E0
5.179636600E-1,-3.770867735E-2,7.811083198E-1,9.917980194E0
5.199620980E-1,-5.686229095E-2,7.523778677E-1,1.009515190E1
5.219605350E-1,-6.165069342E-2,7.763199210E-1,1.004726696E1
5.239589730E-1,-7.122749835E-2,7.858967185E-1,9.731232643E0
5.259574100E-1,-1.095347255E-1,7.954735160E-1,9.640253067E0
5.279558480E-1,-1.286883354E-1,5.799953341E-1,9.726444244E0
5.299542850E-1,-2.005143911E-1,4.076128304E-1,1.010951710E1
5.319527230E-1,-1.382651478E-1,6.422445774E-1,1.022922707E1
5.339511600E-1,-9.995792061E-2,8.242039084E-1,9.807847023E0
5.359495980E-1,-2.100912035E-1,7.954735160E-1,9.228450775E0
5.379479830E-1,-3.058592677E-1,7.523778677E-1,9.161413193E0
5.399463160E-1,-2.962824702E-1,7.571662664E-1,9.467870712E0
5.419446500E-1,-1.957259923E-1,7.667431235E-1,9.592369080E0
5.439429830E-1,-1.526303589E-1,8.002619147E-1,9.659406662E0
5.459412640E-1,-9.516951442E-2,7.954735160E-1,9.755174637E0
5.479395460E-1,-8.559270948E-2,7.954735160E-1,9.817423820E0
5.499378270E-1,-4.728548229E-2,7.954735160E-1,9.913191795E0
5.519361080E-1,-2.334346622E-2,8.385691643E-1,9.817423820E0
5.539343890E-1,-9.516951442E-2,8.720879555E-1,9.874884605E0
5.559326710E-1,-1.526303589E-1,8.960300088E-1,9.898826599E0
5.579309520E-1,-1.813607812E-1,8.960300088E-1,9.836577415E0
5.599292330E-1,-2.436100245E-1,8.194155097E-1,9.774328232E0
5.619275140E-1,-2.579752207E-1,8.625111580E-1,9.889249802E0
5.639257960E-1,-2.005143911E-1,9.487023950E-1,9.606734276E0
5.659240770E-1,-2.148796022E-1,7.811083198E-1,9.544485092E0
5.679223580E-1,-2.579752207E-1,7.428010702E-1,9.707290649E0
5.699206910E-1,-2.148796022E-1,6.518214345E-1,9.898826599E0
5.719190770E-1,-1.382651478E-1,6.805518270E-1,1.007120991E1
5.739175140E-1,3.890577704E-2,1.969230920E-1,1.057399178E1
5.759160040E-1,1.203086376E-1,-3.968389332E-1,1.120127296E1
5.779145460E-1,2.879027426E-1,-1.220444322E0,1.227866364E1
5.799130870E-1,4.848258570E-2,-1.455076098E0,1.267131233E1
5.819116290E-1,-4.207809567E-1,-6.985083222E-1,1.064102936E1
5.839101710E-1,-8.613140583E-1,1.073200941E0,7.360973358E0
5.859087120E-1,-1.340154409E0,2.030881643E0,7.801506042E0
5.879072540E-1,-1.033696532E0,1.978209138E0,8.687360764E0
5.899057960E-1,-6.218938828E-1,1.643020868E0,9.587580681E0
5.919042850E-1,-3.058592677E-1,1.432331204E0,1.025316906E1
5.939026180E-1,2.454056777E-2,1.346139908E0,1.014303589E1
5.959009520E-1,2.831143439E-1,1.092354536E0,9.630676270E0
5.978992850E-1,3.884592354E-1,1.044470549E0,9.453505516E0
5.998976180E-1,4.171896577E-1,1.298255920E0,9.089587212E0
6.018959520E-1,3.693056107E-1,1.365293503E0,8.725667953E0
6.038943370E-1,4.554968774E-1,1.245583415E0,8.653841972E0
6.058927750E-1,5.033808947E-1,9.917980433E-1,8.902838707E0
6.078912640E-1,4.938040972E-1,6.901286244E-1,9.228450775E0
6.098898060E-1,4.171896577E-1,4.698620737E-1,9.405621529E0
6.118884000E-1,2.831143439E-1,3.070563674E-1,9.654618263E0
6.138870460E-1,2.352303118E-1,1.873462796E-1,9.827000618E0
6.158857430E-1,8.678980917E-2,-1.334767491E-1,9.707290649E0
6.178844930E-1,-1.047463268E-1,-1.669955701E-1,9.635464668E0
6.198832960E-1,-1.957259923E-1,-1.622071713E-1,9.798270226E0
6.218820980E-1,-2.148796022E-1,-2.005143911E-1,9.807847023E0
6.238809000E-1,-2.771288455E-1,-1.813607812E-1,9.635464668E0
6.258797020E-1,-2.579752207E-1,-3.292027488E-2,9.549273491E0
6.278780870E-1,-1.526303589E-1,1.017535757E-2,9.539696693E0
6.298762640E-1,-2.813187055E-2,1.011550203E-1,9.731232643E0
6.318744410E-1,1.346738487E-1,2.639607489E-1,9.855731010E0
6.338726180E-1,1.250970364E-1,3.214215636E-1,9.779116631E0
6.358707960E-1,1.921346933E-1,5.368997455E-1,1.004726696E1
6.378689730E-1,2.352303118E-1,8.050503135E-1,9.788693428E0
6.398671500E-1,2.304419130E-1,9.199720025E-1,9.659406662E0
6.418653270E-1,2.208651006E-1,8.194155097E-1,9.702502251E0
6.438635560E-1,1.729810685E-1,7.188590765E-1,9.927556992E0
6.458618370E-1,2.974795699E-1,8.529343605E-1,1.018134308E1
6.478601710E-1,2.352303118E-1,7.284358740E-1,9.917980194E0
6.498585040E-1,1.777694821E-1,5.943605900E-1,9.803058624E0
6.518568370E-1,9.636662155E-2,5.081692934E-1,9.913191795E0
6.538551710E-1,9.636662155E-2,3.740940094E-1,1.003290176E1
6.558535040E-1,1.634042710E-1,4.554968774E-1,9.865307808E0
6.578518370E-1,1.586158574E-1,3.836708367E-1,9.807847023E0
6.598501710E-1,1.586158574E-1,4.219780564E-1,9.697713852E0
6.618485040E-1,1.346738487E-1,3.405751884E-1,9.640253067E0
6.638468370E-1,1.011550203E-1,3.453635871E-1,9.668983459E0
6.658451710E-1,1.681926697E-1,4.267664552E-1,9.582792282E0
6.678435040E-1,1.586158574E-1,4.028244317E-1,9.539696693E0
6.698418370E-1,1.538274586E-1,3.980360329E-1,9.491812706E0
6.718401710E-1,1.346738487E-1,3.214215636E-1,9.491812706E0
6.738385040E-1,3.411737457E-2,4.171896577E-1,9.410409927E0
6.758368370E-1,4.369417951E-2,3.884592354E-1,9.367314339E0
6.778351710E-1,1.975216344E-2,3.214215636E-1,9.386467934E0
6.798335040E-1,-1.855506375E-2,2.448071241E-1,9.472659111E0
6.818318370E-1,-4.728548229E-2,2.974795699E-1,9.424775124E0
6.838301710E-1,-5.207388848E-2,3.453635871E-1,9.496601105E0
6.858284520E-1,-3.770867735E-2,3.693056107E-1,9.491812706E0
6.878266810E-1,-6.165069342E-2,2.304419130E-1,9.525331497E0
6.898249100E-1,-9.038111567E-2,2.400187254E-1,9.793481827E0
6.918231390E-1,-9.516951442E-2,1.825578809E-1,9.750386238E0
6.938213680E-1,-1.286883354E-1,1.681926697E-1,9.707290649E0
6.958195980E-1,-1.143231317E-1,2.112883031E-1,9.721655846E0
6.978178270E-1,-1.286883354E-1,3.022679687E-1,9.750386238E0
6.998160560E-1,-1.143231317E-1,2.735375464E-1,9.630676270E0
7.018141290E-1,-1.334767491E-1,4.028244317E-1,9.769539833E0
7.038121500E-1,-8.080431074E-2,4.650736749E-1,9.659406662E0
7.058101710E-1,-8.080431074E-2,4.698620737E-1,9.750386238E0
7.078081910E-1,-4.249707982E-2,4.363432527E-1,9.836577415E0
7.098062120E-1,1.017535757E-2,4.602852762E-1,9.846154213E0
7.118042330E-1,-2.813187055E-2,4.315548539E-1,1.000417137E1
7.138022540E-1,1.975216344E-2,5.512649417E-1,9.980229378E0
7.158002750E-1,1.059434265E-1,5.225345492E-1,9.779116631E0
7.177982960E-1,1.059434265E-1,5.177460909E-1,9.621099472E0
7.197963680E-1,6.763619930E-2,5.129576921E-1,9.621099472E0
7.217944930E-1,1.777694821E-1,6.087257862E-1,9.563638687E0
7.237926710E-1,1.203086376E-1,5.129576921E-1,9.750386238E0
7.257909000E-1,1.442506462E-1,6.326677799E-1,1.003769016E1
7.277891810E-1,1.442506462E-1,6.183025837E-1,9.707290649E0
7.297875140E-1,1.442506462E-1,6.326677799E-1,9.769539833E0
7.317858480E-1,6.763619930E-2,5.464765429E-1,9.836577415E0
7.337841810E-1,4.369417951E-2,7.332242727E-1,9.716867447E0
7.357825140E-1,7.242459804E-2,6.087257862E-1,9.472659111E0
7.377808480E-1,-2.334346622E-2,5.033808947E-1,9.554061890E0
7.397791810E-1,-1.095347255E-1,2.783259451E-1,9.985017776E0
7.417775140E-1,-1.622071713E-1,1.777694821E-1,1.017176628E1
7.437758480E-1,-2.148796022E-1,3.501519859E-1,9.908403397E0
7.457741810E-1,-3.058592677E-1,2.400187254E-1,9.688137054E0
7.477725140E-1,-3.633201122E-1,2.543839216E-1,9.879673004E0
7.497708480E-1,-3.154360652E-1,2.017114908E-1,1.006163311E1
7.517691810E-1,-2.483984232E-1,3.884592354E-1,9.989806175E0
7.537675140E-1,-1.957259923E-1,5.033808947E-1,9.601945877E0
7.557658480E-1,-2.148796022E-1,6.135141850E-1,9.276334763E0
7.577641810E-1,-1.430535465E-1,3.549404144E-1,9.218873978E0
7.597625140E-1,-1.622071713E-1,2.735375464E-1,9.745597839E0
7.617608480E-1,-5.686229095E-2,4.459200799E-1,1.027711105E1
7.637591810E-1,5.327098817E-2,7.954735160E-1,9.946710587E0
7.657575140E-1,3.411737457E-2,7.715315223E-1,9.151836395E0
7.677558480E-1,-1.622071713E-1,6.087257862E-1,9.089587212E0
7.697541810E-1,-2.483984232E-1,5.943605900E-1,9.731232643E0
7.717525140E-1,-2.148796022E-1,4.507084787E-1,1.017655468E1
7.737508480E-1,-1.430535465E-1,2.304419130E-1,1.029626465E1
7.757491810E-1,-2.771288455E-1,4.124012291E-1,1.002811337E1
7.777475140E-1,-2.962824702E-1,5.081692934E-1,9.472659111E0
7.797458480E-1,-3.585317135E-1,3.836708367E-1,9.223662376E0
7.817441810E-1,-4.064157307E-1,2.017114908E-1,9.769539833E0
7.837424100E-1,-3.776853085E-1,3.070563674E-1,9.894038200E0
7.857406390E-1,-2.340332121E-1,3.932476342E-1,9.956287384E0
7.877388680E-1,-2.100912035E-1,4.554968774E-1,9.621099472E0
7.897370980E-1,-2.244564146E-1,4.985924959E-1,9.779116631E0
7.917353270E-1,-1.430535465E-1,2.879027426E-1,1.000895977E1
7.937335560E-1,-1.095347255E-1,3.357867897E-1,1.021486187E1
7.957317850E-1,-8.559270948E-2,4.363432527E-1,9.759963036E0
7.977300140E-1,-5.686229095E-2,4.650736749E-1,9.415198326E0
7.997282430E-1,-3.770867735E-2,4.985924959E-1,9.482235909E0
8.017264730E-1,-8.978256024E-3,5.225345492E-1,9.453505516E0
8.037247020E-1,3.411737457E-2,3.214215636E-1,9.635464668E0
8.057229310E-1,7.721300423E-2,3.836708367E-1,9.841365814E0
8.077211600E-1,9.636662155E-2,5.033808947E-1,9.621099472E0
8.097194410E-1,1.586158574E-1,5.416881442E-1,9.822212219E0
8.117177750E-1,1.538274586E-1,5.177460909E-1,9.779116631E0
8.137161600E-1,1.490390599E-1,5.368997455E-1,9.951498985E0
8.157145980E-1,1.298854351E-1,5.991489887E-1,9.745597839E0
8.177130870E-1,6.284779310E-2,6.230909824E-1,9.635464668E0
8.197116290E-1,-1.376665942E-2,5.704185367E-1,9.424775124E0
8.217102230E-1,-9.995792061E-2,3.788824081E-1,9.329007149E0
8.237088680E-1,-8.080431074E-2,2.064998895E-1,9.865307808E0
8.257075140E-1,4.369417951E-2,4.985924959E-1,9.788693428E0
8.277061600E-1,8.678980917E-2,-9.038111567E-2,1.024838066E1
8.297048060E-1,3.411737457E-2,8.678980917E-2,1.062666416E1
8.317034520E-1,1.011550203E-1,6.949170232E-1,9.391256332E0
8.337020980E-1,9.157821536E-2,5.464765429E-1,8.778340340E0
8.357007430E-1,5.327098817E-2,3.357867897E-1,9.228450775E0
8.376993890E-1,6.284779310E-2,2.926911712E-1,9.750386238E0
8.396980350E-1,1.777694821E-1,1.873462796E-1,1.016697788E1
8.416964210E-1,1.729810685E-1,1.017535757E-2,1.015740108E1
8.436948060E-1,9.157821536E-2,2.591723204E-1,9.740809441E0
8.456931910E-1,5.805939063E-2,2.879027426E-1,9.549273491E0
8.476915770E-1,-4.189853091E-3,2.448071241E-1,9.410409927E0
8.496899620E-1,-1.143231317E-1,2.879027426E-1,8.984241486E0
8.516883480E-1,-1.286883354E-1,1.873462796E-1,9.568427086E0
8.536867330E-1,-3.292027488E-2,2.448071241E-1,9.850942612E0
8.556851180E-1,6.763619930E-2,1.921346933E-1,9.932345390E0
8.576835040E-1,8.678980917E-2,2.783259451E-1,9.989806175E0
8.596819410E-1,1.873462796E-1,3.549404144E-1,9.774328232E0
8.616804310E-1,1.969230920E-1,6.039373875E-1,9.472659111E0
8.636789730E-1,1.873462796E-1,4.842272997E-1,9.597157478E0
8.656775660E-1,2.160767019E-1,5.608417392E-1,9.582792282E0
8.676762120E-1,2.400187254E-1,5.608417392E-1,9.755174637E0
8.696748580E-1,2.831143439E-1,5.991489887E-1,9.563638687E0
8.716735040E-1,4.315548539E-1,2.352303118E-1,8.400056839E0
8.736721500E-1,1.442506462E-1,4.267664552E-1,8.299500465E0
8.756707960E-1,4.848258570E-2,5.129576921E-1,9.113529205E0
8.776691290E-1,1.011550203E-1,4.219780564E-1,1.003290176E1
8.796674620E-1,3.166331649E-1,3.890577704E-2,1.104804420E1
8.816657960E-1,4.267664552E-1,1.059434265E-1,1.073679733E1
8.836641290E-1,3.932476342E-1,2.543839216E-1,1.040639782E1
8.856624620E-1,3.597288132E-1,1.490390599E-1,1.028668785E1
8.876607960E-1,2.879027426E-1,1.634042710E-1,1.000417137E1
8.896591290E-1,2.400187254E-1,3.884592354E-1,9.578003883E0
8.916574620E-1,1.921346933E-1,7.428010702E-1,9.405621529E0
8.936557960E-1,1.921346933E-1,6.997054219E-1,9.578003883E0
8.956541290E-1,1.825578809E-1,5.704185367E-1,9.525331497E0
8.976524620E-1,2.352303118E-1,8.912416101E-1,9.568427086E0
8.996507960E-1,2.112883031E-1,7.667431235E-1,9.123106003E0
9.016491290E-1,1.729810685E-1,5.464765429E-1,9.568427086E0
9.036474620E-1,1.394622475E-1,4.411316514E-1,9.759963036E0
9.056457960E-1,2.543839216E-1,3.932476342E-1,1.001853657E1
9.076441290E-1,2.639607489E-1,4.076128304E-1,9.759963036E0
9.096424620E-1,3.022679687E-1,3.357867897E-1,9.908403397E0
9.116407960E-1,3.262099922E-1,1.634042710E-1,9.798270226E0
9.136391290E-1,2.735375464E-1,1.203086376E-1,9.970652580E0
9.156374620E-1,3.166331649E-1,2.926911712E-1,9.606734276E0
9.176357960E-1,2.974795699E-1,3.645172119E-1,9.333795547E0
9.196341290E-1,2.160767019E-1,-7.122749835E-2,9.894038200E0
9.216324620E-1,1.346738487E-1,-1.765723825E-1,1.053568459E1
9.236307960E-1,8.200141042E-2,2.400187254E-1,9.448717117E0
9.256291290E-1,5.386953708E-3,2.304419130E-1,9.218873978E0
9.276274620E-1,-1.430535465E-1,1.059434265E-1,9.309853554E0
9.296257960E-1,-2.292448133E-1,2.017114908E-1,9.290699959E0
9.316241290E-1,-2.675520480E-1,-4.249707982E-2,9.793481827E0
9.336224620E-1,-4.159925580E-1,-9.995792061E-2,9.855731010E0
9.356207960E-1,-4.495113790E-1,-2.914940715E-1,1.045428181E1
9.376191290E-1,-4.590881765E-1,1.107318252E-1,9.649829865E0
9.396174620E-1,-4.973953962E-1,7.721300423E-2,9.285911560E0
9.416157960E-1,-4.973953962E-1,-2.531868219E-1,9.716867447E0
9.436141290E-1,-3.728969097E-1,-1.813607812E-1,1.001853657E1
9.456124620E-1,-2.100912035E-1,-2.962824702E-1,1.075595093E1
9.476107960E-1,-1.095347255E-1,-1.574187577E-1,1.035372543E1
9.496091290E-1,-9.038111567E-2,-7.122749835E-2,9.285911560E0
9.516072020E-1,-1.382651478E-1,-1.047463268E-1,9.429563522E0
9.536052750E-1,-2.334346622E-2,-5.686229095E-2,9.903614998E0
9.556033480E-1,1.681926697E-1,-2.813187055E-2,1.085650730E1
9.576014210E-1,2.783259451E-1,-4.189853091E-3,1.003290176E1
9.595994930E-1,1.969230920E-1,1.681926697E-1,9.252392769E0
9.615975660E-1,2.783259451E-1,2.687491477E-1,9.463082314E0
9.635956910E-1,4.363432527E-1,9.157821536E-2,1.010472870E1
9.655938680E-1,5.464765429E-1,4.219780564E-1,9.774328232E0
9.675920980E-1,4.746504724E-1,-1.813607812E-1,9.142259598E0
9.695903790E-1,4.267664552E-1,-8.900445104E-1,1.080383492E1
9.715887120E-1,5.991489887E-1,1.538274586E-1,1.127309895E1
9.735870460E-1,6.901286244E-1,1.547252893E0,7.078457355E0
9.755853790E-1,4.746504724E-1,1.058835745E0,6.297947407E0
9.775837120E-1,4.076128304E-1,-1.286883354E-1,1.140717411E1
9.795820460E-1,5.752069354E-1,-7.990648150E-1,1.389714336E1
9.815803790E-1,6.039373875E-1,2.160767019E-1,9.362525940E0
9.835787120E-1,4.459200799E-1,1.097142935E0,8.337807655E0
9.855770460E-1,4.219780564E-1,1.250371814E0,8.280346870E0
9.875753790E-1,4.554968774E-1,8.194155097E-1,9.544485092E0
9.895737120E-1,4.076128304E-1,2.783259451E-1,1.022443867E1
9.915720460E-1,3.645172119E-1,5.177460909E-1,1.041118622E1
9.935703790E-1,3.597288132E-1,6.805518270E-1,9.467870712E0
9.955687120E-1,3.118447661E-1,4.938040972E-1,1.029626465E1
9.975670460E-1,3.262099922E-1,5.273229480E-1,1.011909389E1
9.995653790E-1,1.969230920E-1,7.906851172E-1,9.400833130E0
1.001563712E0,8.678980917E-2,7.428010702E-1,9.391256332E0
1.003562046E0,-2.334346622E-2,6.422445774E-1,9.032125473E0
1.005560379E0,-4.249707982E-2,1.634042710E-1,1.145505810E1
1.007558712E0,8.200141042E-2,3.405751884E-1,9.994594574E0
1.009557046E0,-3.770867735E-2,4.698620737E-1,8.495824814E0
1.011555379E0,-8.559270948E-2,6.805518270E-1,9.396044731E0
1.013553712E0,-1.376665942E-2,6.757634282E-1,9.204508781E0
1.015552046E0,-2.334346622E-2,2.064998895E-1,1.021007347E1
1.017550379E0,1.496376097E-2,-2.388216257E-1,1.095227528E1
1.019548764E0,-1.334767491E-1,-8.080431074E-2,1.029147625E1
1.021547150E0,-8.559270948E-2,2.495955229E-1,9.941922188E0
1.023545587E0,-1.430535465E-1,4.267664552E-1,8.668207169E0
1.025544077E0,-2.819172442E-1,2.352303118E-1,9.161413193E0
1.027542618E0,-3.154360652E-1,1.921346933E-1,9.458293915E0
1.029541160E0,-2.675520480E-1,1.496376097E-2,9.664195061E0
1.031539702E0,-2.579752207E-1,-3.154360652E-1,1.019091988E1
1.033538243E0,-3.537433147E-1,-1.861491799E-1,9.965864182E0
1.035536785E0,-2.483984232E-1,6.284779310E-2,9.874884605E0
1.037535327E0,-2.579752207E-1,-2.813187055E-2,9.252392769E0
1.039533868E0,-3.298012912E-1,-1.909375787E-1,9.783905029E0
1.041532410E0,-2.483984232E-1,-2.005143911E-1,1.074637413E1
1.043530952E0,-2.962824702E-1,1.490390599E-1,9.266757965E0
1.045529493E0,-3.441664875E-1,2.495955229E-1,8.620323181E0
1.047528035E0,-2.340332121E-1,-7.601590455E-2,9.702502251E0
1.049526577E0,-2.819172442E-1,7.721300423E-2,9.103952408E0
1.051524910E0,-3.537433147E-1,4.171896577E-1,8.984241486E0
1.053523243E0,-1.861491799E-1,-2.388216257E-1,1.151730728E1
1.055521577E0,-1.526303589E-1,-4.542997777E-1,1.044949341E1
1.057519910E0,-1.574187577E-1,2.879027426E-1,8.921992302E0
1.059518243E0,-1.047463268E-1,3.501519859E-1,8.404845238E0
1.061516577E0,-2.813187055E-2,-4.728548229E-2,1.052131939E1
1.063514910E0,4.369417951E-2,-3.106476665E-1,1.021965027E1
1.065513243E0,1.107318252E-1,-2.148796022E-1,9.965864182E0
1.067511629E0,1.394622475E-1,1.729810685E-1,8.950722694E0
1.069510066E0,1.394622475E-1,2.448071241E-1,9.362525940E0
1.071508556E0,1.490390599E-1,3.549404144E-1,9.927556992E0
1.073507098E0,4.848258570E-2,5.464765429E-1,7.988254070E0
1.075505691E0,5.386953708E-3,-1.162983418E0,1.110550499E1
1.077504337E0,9.157821536E-2,-8.469488621E-1,1.383968258E1
1.079503035E0,6.284779310E-2,5.464765429E-1,8.371326447E0
1.081501785E0,-1.478419602E-1,1.058835745E0,7.720103264E0
1.083500535E0,-1.286883354E-1,6.613982320E-1,8.845377922E0
1.085499285E0,-2.196680009E-1,-6.643909961E-2,1.055004978E1
1.087498035E0,-2.771288455E-1,-1.047463268E-1,1.016218948E1
1.089496785E0,-2.005143911E-1,5.327098817E-2,1.010951710E1
1.091495535E0,-1.909375787E-1,3.453635871E-1,9.865307808E0
1.093494077E0,-2.196680009E-1,5.512649417E-1,8.912415504E0
1.095492462E0,-2.196680009E-1,1.969230920E-1,9.697713852E0
1.097490848E0,-2.867056429E-1,4.848258570E-2,1.031541824E1
1.099489233E0,-2.436100245E-1,2.879027426E-1,9.894038200E0
1.101487618E0,-1.861491799E-1,4.171896577E-1,9.367314339E0
1.103486004E0,-1.813607812E-1,2.495955229E-1,9.721655846E0
1.105484389E0,-1.334767491E-1,1.250970364E-1,1.002811337E1
1.107482775E0,-6.643909961E-2,3.214215636E-1,9.956287384E0
1.109481160E0,-6.165069342E-2,6.566098332E-1,9.348160744E0
1.111479598E0,-1.574187577E-1,5.225345492E-1,9.429563522E0
1.113478087E0,-1.526303589E-1,2.687491477E-1,1.056441498E1
1.115476629E0,-2.196680009E-1,3.262099922E-1,9.429563522E0
1.117475223E0,-3.106476665E-1,4.890156984E-1,9.946710587E0
1.119473868E0,-2.196680009E-1,7.284358740E-1,8.969876289E0
1.121472566E0,-2.292448133E-1,5.368997455E-1,9.357737541E0
1.123471264E0,-1.717839688E-1,1.969230920E-1,1.041597462E1
1.125469962E0,-2.244564146E-1,1.442506462E-1,1.050216579E1
1.127468660E0,-2.292448133E-1,3.980360329E-1,9.798270226E0
1.129467202E0,-1.957259923E-1,7.140706778E-1,9.487024307E0
1.131465587E0,-1.765723825E-1,7.428010702E-1,9.362525940E0
1.133463868E0,-2.244564146E-1,2.400187254E-1,9.750386238E0
1.135462098E0,-1.813607812E-1,4.076128304E-1,1.046864700E1
1.137460275E0,-2.005143911E-1,4.985924959E-1,9.510966301E0
1.139458452E0,-2.867056429E-1,5.081692934E-1,9.400833130E0
1.141456629E0,-2.771288455E-1,4.794389009E-1,9.750386238E0
1.143454806E0,-2.292448133E-1,5.704185367E-1,9.367314339E0
1.145452983E0,-2.340332121E-1,5.560533404E-1,9.348160744E0
1.147451160E0,-1.909375787E-1,2.639607489E-1,9.870096207E0
1.149449337E0,-1.622071713E-1,1.155202314E-1,1.007120991E1
1.151447514E0,-1.430535465E-1,2.543839216E-1,1.033936024E1
1.153445691E0,-1.047463268E-1,2.687491477E-1,9.065644264E0
1.155443921E0,-1.669955701E-1,-2.334346622E-2,1.045428181E1
1.157442202E0,-1.574187577E-1,-1.382651478E-1,1.101931286E1
1.159440535E0,-1.574187577E-1,1.825578809E-1,9.558850288E0
1.161438921E0,-1.574187577E-1,4.315548539E-1,9.147047997E0
1.163437358E0,-1.717839688E-1,4.746504724E-1,9.199720383E0
1.165435848E0,-1.526303589E-1,4.219780564E-1,8.960299492E0
1.167434337E0,-8.559270948E-2,6.763619930E-2,9.683348656E0
1.169432827E0,-4.728548229E-2,-4.249707982E-2,1.057878017E1
1.171431316E0,3.411737457E-2,1.825578809E-1,1.008078671E1
1.173429806E0,5.386953708E-3,5.799953341E-1,9.017760277E0
1.175428296E0,2.932897024E-2,7.236474752E-1,8.625111580E0
1.177426785E0,1.203086376E-1,4.794389009E-1,1.012388229E1
1.179425275E0,4.369417951E-2,1.729810685E-1,1.035851383E1
1.181423764E0,5.327098817E-2,2.879027426E-1,1.009994030E1
1.183422254E0,2.932897024E-2,4.219780564E-1,9.716867447E0
1.185420743E0,-4.728548229E-2,4.890156984E-1,9.300276756E0
1.187419233E0,-9.038111567E-2,3.118447661E-1,8.945934296E0
1.189417671E0,-9.516951442E-2,7.242459804E-2,9.903614998E0
1.191415952E0,-1.334767491E-1,4.369417951E-2,9.903614998E0
1.193414233E0,-2.053027898E-1,3.501519859E-1,8.821435928E0
1.195412514E0,-1.765723825E-1,4.171896577E-1,9.759963036E0
1.197410796E0,-1.813607812E-1,-6.643909961E-2,1.017176628E1
1.199409077E0,-1.861491799E-1,-7.122749835E-2,1.066018295E1
1.201407358E0,-7.601590455E-2,2.735375464E-1,1.017176628E1
1.203405639E0,-6.165069342E-2,4.938040972E-1,9.170989990E0
1.205403921E0,-1.047463268E-1,1.250970364E-1,9.850942612E0
1.207402202E0,-1.765723825E-1,1.017535757E-2,9.582792282E0
1.209400483E0,-7.601590455E-2,-2.053027898E-1,1.021007347E1
1.211398764E0,-9.038111567E-2,-1.909375787E-1,1.019091988E1
1.213397046E0,-1.382651478E-1,-1.286883354E-1,8.955511093E0
1.215395327E0,-1.143231317E-1,-1.334767491E-1,9.611522675E0
1.217393608E0,-3.770867735E-2,-2.244564146E-1,9.740809441E0
1.219391889E0,-4.249707982E-2,-4.686649740E-1,9.496601105E0
1.221390171E0,3.890577704E-2,-5.357026458E-1,1.001374817E1
1.223388452E0,5.985504249E-4,-2.962824702E-1,1.014303589E1
1.225386785E0,5.805939063E-2,3.453635871E-1,9.080010414E0
1.227385171E0,9.157821536E-2,2.017114908E-1,8.304288864E0
1.229383556E0,9.157821536E-2,-8.080431074E-2,1.031541824E1
1.231381941E0,2.591723204E-1,-4.064157307E-1,1.181897640E1
1.233380379E0,2.495955229E-1,2.112883031E-1,9.956287384E0
1.235378868E0,2.256535143E-1,6.422445774E-1,8.859743118E0
1.237377358E0,2.687491477E-1,4.938040972E-1,8.979453087E0
1.239375848E0,3.214215636E-1,-2.813187055E-2,1.040160942E1
1.241374337E0,4.650736749E-1,1.681926697E-1,1.110550499E1
1.243372827E0,4.938040972E-1,8.864531517E-1,8.610746384E0
1.245371316E0,5.081692934E-1,9.870096445E-1,8.763975143E0
1.247369337E0,5.321113467E-1,8.768763542E-1,9.487024307E0
1.249367150E0,6.087257862E-1,8.529343605E-1,9.348160744E0
1.251364962E0,6.901286244E-1,1.039682031E0,9.501389503E0
1.253362775E0,6.997054219E-1,8.577227592E-1,1.039682102E1
1.255360639E0,7.571662664E-1,8.385691643E-1,9.467870712E0
1.257358556E0,6.901286244E-1,6.135141850E-1,1.033457184E1
1.259356525E0,7.619546652E-1,1.159392118E0,9.755174637E0
1.261354546E0,7.332242727E-1,1.298255920E0,8.333019257E0
1.263352618E0,6.901286244E-1,9.630676508E-1,1.047822380E1
1.265350743E0,6.230909824E-1,7.906851172E-1,1.043512821E1
1.267348921E0,4.602852762E-1,9.008184075E-1,9.625887871E0
1.269347150E0,3.357867897E-1,9.199720025E-1,9.554061890E0
1.271345431E0,1.203086376E-1,8.672995567E-1,9.290699959E0
1.273343764E0,-5.686229095E-2,7.044938207E-1,9.798270226E0
1.275342150E0,-8.559270948E-2,4.650736749E-1,9.793481827E0
1.277340535E0,-1.430535465E-1,5.033808947E-1,1.033457184E1
1.279338921E0,-2.436100245E-1,3.788824081E-1,1.036809063E1
1.281337306E0,-3.585317135E-1,2.639607489E-1,1.005205631E1
1.283335691E0,-4.495113790E-1,2.352303118E-1,9.530119896E0
1.285334077E0,-5.165489912E-1,3.070563674E-1,9.300276756E0
1.287332306E0,-5.787982345E-1,4.650736749E-1,8.993818283E0
1.289330327E0,-6.027402878E-1,4.985924959E-1,8.337807655E0
1.291328348E0,-5.021837950E-1,5.805939063E-2,1.024838066E1
1.293326368E0,-4.495113790E-1,-1.957259923E-1,1.020049667E1
1.295324389E0,-3.872621357E-1,1.681926697E-1,1.007599831E1
1.297322410E0,-2.483984232E-1,5.560533404E-1,9.276334763E0
1.299320431E0,-1.382651478E-1,4.602852762E-1,9.879673004E0
1.301318452E0,-9.516951442E-2,-1.430535465E-1,1.052131939E1
1.303316525E0,-1.095347255E-1,-3.728969097E-1,1.014782429E1
1.305314650E0,-3.292027488E-2,8.678980917E-2,9.549273491E0
1.307312827E0,2.932897024E-2,1.538274586E-1,8.615534782E0
1.309311056E0,4.369417951E-2,-2.292448133E-1,1.001374817E1
1.311309337E0,1.586158574E-1,4.369417951E-2,1.092833328E1
1.313307671E0,2.304419130E-1,1.001374841E0,6.896498203E0
1.315306056E0,1.394622475E-1,1.059434265E-1,8.696937561E0
1.317304493E0,3.788824081E-1,-1.286883354E-1,1.277665710E1
1.319302983E0,5.129576921E-1,4.076128304E-1,9.400833130E0
1.321301525E0,4.028244317E-1,5.943605900E-1,9.257181168E0
1.323300066E0,5.512649417E-1,2.495955229E-1,1.009515190E1
1.325298608E0,5.656301379E-1,3.022679687E-1,9.630676270E0
1.327297150E0,6.230909824E-1,3.357867897E-1,9.894038200E0
1.329295691E0,7.428010702E-1,3.980360329E-1,1.007599831E1
1.331294233E0,7.044938207E-1,5.081692934E-1,9.616311073E0
1.333292671E0,6.709750295E-1,6.518214345E-1,8.859743118E0
1.335290952E0,7.236474752E-1,8.672995567E-1,8.840589523E0
1.337289077E0,7.188590765E-1,6.230909824E-1,9.290699959E0
1.339287202E0,7.284358740E-1,5.033808947E-1,9.759963036E0
1.341285327E0,7.571662664E-1,7.721300423E-2,1.117733097E1
1.343283452E0,6.805518270E-1,2.304419130E-1,1.049258900E1
1.345281577E0,6.135141850E-1,7.044938207E-1,9.664195061E0
1.347279702E0,5.608417392E-1,7.906851172E-1,9.477447510E0
1.349277827E0,5.321113467E-1,5.895721912E-1,9.285911560E0
1.351275952E0,4.746504724E-1,4.698620737E-1,1.026753426E1
1.353274077E0,3.645172119E-1,6.757634282E-1,9.391256332E0
1.355272202E0,1.442506462E-1,8.720879555E-1,9.941922188E0
1.357270327E0,7.242459804E-2,6.949170232E-1,1.006163311E1
1.359268504E0,-1.095347255E-1,6.135141850E-1,9.228450775E0
1.361266681E0,-2.196680009E-1,6.949170232E-1,9.736021042E0
1.363264858E0,-3.010708690E-1,4.554968774E-1,1.016218948E1
1.365263087E0,-2.005143911E-1,5.033808947E-1,9.884461403E0
1.367261368E0,-2.675520480E-1,5.321113467E-1,9.400833130E0
1.369259650E0,-3.393780887E-1,7.811083198E-1,9.362525940E0
1.371257931E0,-2.579752207E-1,2.974795699E-1,1.031541824E1
1.373256212E0,-2.292448133E-1,1.777694821E-1,9.769539833E0
1.375254493E0,-3.489548862E-1,9.636662155E-2,9.568427086E0
1.377252775E0,-3.441664875E-1,-7.601590455E-2,1.020528507E1
1.379251056E0,-2.244564146E-1,2.256535143E-1,1.066497135E1
1.381249337E0,-2.100912035E-1,6.278793812E-1,8.787917137E0
1.383247618E0,-3.585317135E-1,4.459200799E-1,8.725667953E0
1.385245900E0,-4.351461530E-1,-4.728548229E-2,1.036330223E1
1.387244181E0,-3.202244639E-1,1.586158574E-1,1.036809063E1
1.389242462E0,-2.483984232E-1,2.495955229E-1,9.027337074E0
1.391240587E0,-2.579752207E-1,1.011550203E-1,1.010472870E1
1.393238504E0,-3.010708690E-1,2.783259451E-1,9.764751434E0
1.395236421E0,-3.585317135E-1,3.214215636E-1,8.740033150E0
1.397234337E0,-2.962824702E-1,8.678980917E-2,9.850942612E0
1.399232254E0,-1.813607812E-1,4.746504724E-1,1.011909389E1
1.401230223E0,-1.478419602E-1,6.518214345E-1,8.605957985E0
1.403228243E0,-2.340332121E-1,3.884592354E-1,8.965087891E0
1.405226316E0,-8.080431074E-2,-9.038111567E-2,1.188122559E1
1.407224441E0,-5.686229095E-2,2.160767019E-1,9.846154213E0
1.409222618E0,-1.622071713E-1,2.831143439E-1,9.199720383E0
1.411220900E0,-2.244564146E-1,6.284779310E-2,1.017176628E1
1.413219285E0,-2.483984232E-1,1.538274586E-1,9.750386238E0
1.415217775E0,-2.627636492E-1,2.783259451E-1,9.027337074E0
1.417216368E0,-1.957259923E-1,5.416881442E-1,9.554061890E0
1.419215014E0,-7.601590455E-2,3.693056107E-1,9.472659111E0
1.421213712E0,-7.122749835E-2,1.107318252E-1,9.917980194E0
1.423212462E0,-1.047463268E-1,5.386953708E-3,1.023880386E1
1.425211264E0,3.890577704E-2,9.157821536E-2,1.001853657E1
1.427210066E0,1.203086376E-1,2.879027426E-1,1.033936024E1
1.429208868E0,1.442506462E-1,3.405751884E-1,8.931569099E0
1.431207618E0,1.490390599E-1,2.831143439E-1,9.884461403E0
1.433205952E0,1.586158574E-1,2.735375464E-1,9.817423820E0
1.435204285E0,7.242459804E-2,4.028244317E-1,9.247604370E0
1.437202618E0,5.805939063E-2,4.650736749E-1,9.621099472E0
1.439200952E0,1.346738487E-1,1.586158574E-1,1.003290176E1
1.441199285E0,2.017114908E-1,1.490390599E-1,1.060751057E1
1.443197618E0,3.549404144E-1,3.214215636E-1,9.563638687E0
1.445195952E0,3.884592354E-1,4.554968774E-1,9.515754700E0
1.447194285E0,4.650736749E-1,6.518214345E-1,9.012971878E0
1.449192671E0,4.459200799E-1,8.337807655E-1,8.768763542E0
1.451191108E0,4.459200799E-1,4.315548539E-1,1.028668785E1
1.453189598E0,5.273229480E-1,4.369417951E-2,1.120127296E1
1.455188139E0,6.997054219E-1,3.357867897E-1,1.007120991E1
1.457186733E0,6.709750295E-1,6.901286244E-1,9.060855865E0
1.459185379E0,6.518214345E-1,9.582792521E-1,8.514978409E0
1.461184077E0,6.853402257E-1,6.709750295E-1,9.290699959E0
1.463182827E0,6.757634282E-1,1.298854351E-1,1.132098293E1
1.465181629E0,5.656301379E-1,3.453635871E-1,9.391256332E0
1.467180483E0,3.788824081E-1,3.405751884E-1,9.008183479E0
1.469179337E0,3.932476342E-1,1.442506462E-1,1.120606136E1
1.471178191E0,4.363432527E-1,3.405751884E-1,1.038724422E1
1.473177046E0,2.687491477E-1,5.081692934E-1,8.740033150E0
1.475175483E0,2.017114908E-1,8.625111580E-1,8.950722694E0
1.477173816E0,2.304419130E-1,6.326677799E-1,9.649829865E0
1.479172150E0,1.203086376E-1,6.661866307E-1,8.907627106E0
1.481170483E0,8.678980917E-2,4.124012291E-1,9.745597839E0
1.483168816E0,-5.686229095E-2,2.831143439E-1,9.314641953E0
1.485167150E0,-7.122749835E-2,-1.861491799E-1,1.049258900E1
1.487165483E0,-7.122749835E-2,-4.542997777E-1,1.106240940E1
1.489163816E0,-3.770867735E-2,-2.388216257E-1,1.011430550E1
1.491162150E0,1.496376097E-2,-6.643909961E-2,9.118317604E0
1.493160483E0,1.011550203E-1,1.298854351E-1,1.019570827E1
1.495158816E0,3.890577704E-2,-2.813187055E-2,8.998606682E0
1.497157150E0,1.298854351E-1,6.518214345E-1,8.514978409E0
1.499155483E0,1.442506462E-1,9.636662155E-2,9.769539833E0
1.501153816E0,1.155202314E-1,-4.926069975E-1,1.069849014E1
1.503152150E0,1.825578809E-1,-2.100912035E-1,1.049258900E1
1.505150483E0,1.825578809E-1,5.386953708E-3,9.477447510E0
1.507148712E0,1.490390599E-1,-6.643909961E-2,9.736021042E0
1.509146941E0,1.586158574E-1,6.284779310E-2,9.707290649E0
1.511145171E0,2.017114908E-1,3.022679687E-1,8.955511093E0
1.513143400E0,1.873462796E-1,4.938040972E-1,9.419986725E0
1.515141629E0,2.160767019E-1,5.560533404E-1,9.539696693E0
1.517139858E0,1.921346933E-1,3.645172119E-1,9.568427086E0
1.519138087E0,1.921346933E-1,3.645172119E-1,9.544485092E0
1.521136316E0,1.921346933E-1,2.304419130E-1,1.018134308E1
1.523134546E0,2.112883031E-1,4.848258570E-2,1.035372543E1
1.525132775E0,2.543839216E-1,-1.430535465E-1,1.107677460E1
1.527131056E0,2.735375464E-1,2.208651006E-1,1.035372543E1
1.529129389E0,1.729810685E-1,8.050503135E-1,7.102399349E0
1.531127723E0,-6.165069342E-2,-3.292027488E-2,9.056067467E0
1.533126056E0,1.490390599E-1,-2.053027898E-1,1.169926643E1
1.535124389E0,2.448071241E-1,2.783259451E-1,9.391256332E0
1.537122775E0,2.208651006E-1,6.326677799E-1,8.787917137E0
1.539121212E0,2.352303118E-1,2.879027426E-1,9.755174637E0
1.541119650E0,2.017114908E-1,3.740940094E-1,9.745597839E0
1.543118087E0,1.155202314E-1,1.346738487E-1,1.091875648E1
1.545116525E0,1.059434265E-1,5.321113467E-1,8.864531517E0
1.547114962E0,-5.686229095E-2,1.634042710E-1,8.342596054E0
1.549113400E0,-5.686229095E-2,-3.824737072E-1,1.088044930E1
1.551111837E0,-2.813187055E-2,-4.255693555E-1,1.030105305E1
1.553110275E0,-3.292027488E-2,9.636662155E-2,9.137471199E0
1.555108712E0,-1.855506375E-2,2.256535143E-1,9.922768593E0
1.557107150E0,-1.382651478E-1,5.985504249E-4,9.338583946E0
1.559105431E0,-1.574187577E-1,-2.531868219E-1,1.047822380E1
1.561103712E0,-8.559270948E-2,-1.574187577E-1,1.016218948E1
1.563101993E0,-1.855506375E-2,2.454056777E-2,9.204508781E0
1.565100275E0,-1.047463268E-1,3.890577704E-2,9.472659111E0
1.567098556E0,-1.909375787E-1,-3.250128925E-1,1.001374817E1
1.569096837E0,-1.574187577E-1,5.386953708E-3,1.021965027E1
1.571095118E0,-2.100912035E-1,2.304419130E-1,8.725667953E0
1.573093400E0,-2.771288455E-1,-6.165069342E-2,1.025795746E1
1.575091629E0,-2.196680009E-1,-2.723404467E-1,1.091396809E1
1.577089702E0,-2.483984232E-1,4.369417951E-2,8.596381187E0
1.579087775E0,-3.106476665E-1,-2.867056429E-1,1.007599831E1
1.581085848E0,-2.100912035E-1,-4.351461530E-1,1.096664047E1
1.583083921E0,-3.202244639E-1,-1.478419602E-1,8.778340340E0
1.585081993E0,-2.388216257E-1,1.059434265E-1,9.204508781E0
1.587080066E0,-1.669955701E-1,1.634042710E-1,9.060855865E0
1.589078139E0,-2.340332121E-1,-2.388216257E-1,9.649829865E0
1.591076264E0,-2.340332121E-1,-5.883750916E-1,1.057878017E1
1.593074441E0,-1.526303589E-1,-3.537433147E-1,1.067454815E1
1.595072671E0,-8.978256024E-3,4.554968774E-1,8.759186745E0
1.597070952E0,-5.686229095E-2,5.799953341E-1,7.729680061E0
1.599069285E0,-8.559270948E-2,5.386953708E-3,9.041702271E0
1.601067671E0,-2.292448133E-1,-7.703344226E-1,1.157955647E1
1.603066108E0,-2.053027898E-1,-4.255693555E-1,1.055962658E1
1.605064546E0,-2.436100245E-1,-1.622071713E-1,9.314641953E0
1.607062983E0,-2.914940715E-1,-2.531868219E-1,9.683348656E0
1.609061421E0,-4.351461530E-1,-3.441664875E-1,9.372102737E0
1.611059858E0,-4.686649740E-1,-3.681085110E-1,1.026753426E1
1.613058296E0,-4.734533727E-1,-2.723404467E-1,9.889249802E0
1.615056733E0,-4.207809567E-1,-1.574187577E-1,9.980229378E0
1.617055171E0,-3.537433147E-1,-6.165069342E-2,8.773551941E0
1.619053608E0,-4.495113790E-1,-1.238999367E-1,9.779116631E0
1.621052046E0,-4.973953962E-1,-2.962824702E-1,1.012867069E1
1.623050275E0,-3.681085110E-1,-3.154360652E-1,9.453505516E0
1.625048504E0,-2.579752207E-1,-4.189853091E-3,1.027232265E1
1.627046629E0,-3.106476665E-1,1.777694821E-1,8.328230858E0
1.629044754E0,-4.159925580E-1,-1.909375787E-1,1.024359226E1
1.631042879E0,-2.627636492E-1,-2.627636492E-1,1.081820011E1
1.633041004E0,-1.143231317E-1,2.448071241E-1,8.725667953E0
1.635039129E0,-6.165069342E-2,-1.238999367E-1,9.664195061E0
1.637037254E0,-2.005143911E-1,-2.723404467E-1,1.034414864E1
1.639035379E0,-1.478419602E-1,-2.334346622E-2,9.185355186E0
1.641033504E0,-1.813607812E-1,-4.249707982E-2,9.151836395E0
1.643031629E0,-1.382651478E-1,-2.436100245E-1,1.070327854E1
1.645029806E0,-1.478419602E-1,-2.436100245E-1,1.001853657E1
1.647028035E0,-1.526303589E-1,4.369417951E-2,9.750386238E0
1.649026316E0,-1.286883354E-1,1.250970364E-1,9.635464668E0
1.651024650E0,-1.717839688E-1,1.298854351E-1,9.319430351E0
1.653023035E0,-1.717839688E-1,-6.643909961E-2,1.039203262E1
1.655021473E0,-1.382651478E-1,-1.669955701E-1,1.023401546E1
1.657019962E0,-2.531868219E-1,8.200141042E-2,9.123106003E0
1.659018452E0,-2.292448133E-1,1.777694821E-1,9.228450775E0
1.661016941E0,-3.010708690E-1,2.454056777E-2,9.381679535E0
1.663015431E0,-3.298012912E-1,-1.143231317E-1,9.937133789E0
1.665013921E0,-2.005143911E-1,2.454056777E-2,9.357737541E0
1.667012410E0,-1.765723825E-1,-6.643909961E-2,9.927556992E0
1.669010900E0,-8.559270948E-2,-1.143231317E-1,9.419986725E0
1.671009389E0,-1.813607812E-1,-1.669955701E-1,1.035851383E1
1.673007879E0,-2.334346622E-2,-3.920505345E-1,1.088523769E1
1.675006368E0,-5.686229095E-2,-2.579752207E-1,1.015261269E1
1.677004858E0,-1.382651478E-1,4.267664552E-1,8.385691643E0
1.679003348E0,-2.388216257E-1,3.453635871E-1,8.098387718E0
1.681001837E0,-2.675520480E-1,-3.154360652E-1,1.026274586E1
1.683000327E0,-2.483984232E-1,-2.819172442E-1,1.077031612E1
1.684998816E0,-1.765723825E-1,1.873462796E-1,9.348160744E0
1.686997306E0,-1.430535465E-1,1.681926697E-1,9.276334763E0
1.688995796E0,-9.995792061E-2,-5.207388848E-2,1.077510452E1
1.690994285E0,-1.622071713E-1,-1.047463268E-1,9.750386238E0
1.692992775E0,-3.010708690E-1,-1.143231317E-1,1.019091988E1
1.694991264E0,-2.771288455E-1,-2.148796022E-1,1.030105305E1
1.696989754E0,-2.867056429E-1,-5.207388848E-2,9.113529205E0
1.698988243E0,-2.148796022E-1,-4.249707982E-2,9.922768593E0
1.700986681E0,-3.298012912E-1,1.538274586E-1,8.840589523E0
1.702985066E0,-3.537433147E-1,1.298854351E-1,9.300276756E0
1.704983452E0,-2.053027898E-1,-2.334346622E-2,9.745597839E0
1.706981837E0,-2.148796022E-1,-3.633201122E-1,1.012388229E1
1.708980171E0,-2.771288455E-1,-4.590881765E-1,1.056441498E1
1.710978348E0,-2.771288455E-1,-6.165069342E-2,9.084798813E0
1.712976525E0,-3.728969097E-1,5.805939063E-2,8.649053574E0
1.714974702E0,-3.010708690E-1,-6.697779298E-1,1.072243214E1
1.716972879E0,-2.867056429E-1,-4.590881765E-1,1.028668785E1
1.718971056E0,-3.776853085E-1,-1.143231317E-1,9.238027573E0
1.720969233E0,-3.345896900E-1,-2.005143911E-1,9.645041466E0
1.722967410E0,-3.250128925E-1,-3.292027488E-2,8.759186745E0
1.724965587E0,-3.489548862E-1,5.386953708E-3,8.840589523E0
1.726963764E0,-4.878185987E-1,-3.770867735E-2,9.937133789E0
1.728961941E0,-4.447229803E-1,-1.047463268E-1,1.061229897E1
1.730960118E0,-3.776853085E-1,-1.622071713E-1,9.798270226E0
1.732958348E0,-3.872621357E-1,-3.633201122E-1,1.000895977E1
1.734956629E0,-3.298012912E-1,-2.914940715E-1,1.102888966E1
1.736954962E0,-3.106476665E-1,9.157821536E-2,9.482235909E0
1.738953348E0,-2.962824702E-1,1.921346933E-1,9.113529205E0
1.740951785E0,-1.909375787E-1,-2.334346622E-2,9.951498985E0
1.742950223E0,-2.962824702E-1,3.262099922E-1,8.696937561E0
1.744948660E0,-1.957259923E-1,-5.207388848E-2,9.812635422E0
1.746947098E0,-1.574187577E-1,-3.872621357E-1,1.046864700E1
1.748945535E0,-2.483984232E-1,-3.345896900E-1,9.573215485E0
1.750943973E0,-3.106476665E-1,-1.669955701E-1,1.006642151E1
1.752942410E0,-2.100912035E-1,6.284779310E-2,9.554061890E0
1.754940848E0,-3.058592677E-1,8.678980917E-2,9.228450775E0
1.756939285E0,-3.106476665E-1,-5.207388848E-2,1.019570827E1
1.758937723E0,-2.914940715E-1,5.327098817E-2,9.554061890E0
1.760936160E0,-2.196680009E-1,-1.047463268E-1,9.185355186E0
1.762934598E0,-2.053027898E-1,-2.388216257E-1,1.049258900E1
1.764933035E0,-1.526303589E-1,1.969230920E-1,9.467870712E0
1.766931525E0,-1.813607812E-1,4.124012291E-1,8.586804390E0
1.768930066E0,-1.909375787E-1,-2.334346622E-2,1.010951710E1
1.770928660E0,-1.143231317E-1,-2.723404467E-1,1.021965027E1
1.772927306E0,-6.643909961E-2,-1.526303589E-1,1.043991661E1
1.774926004E0,-3.770867735E-2,1.538274586E-1,1.000417137E1
1.776924702E0,-7.601590455E-2,4.459200799E-1,9.170989990E0
1.778923400E0,-9.516951442E-2,2.543839216E-1,9.041702271E0
1.780922098E0,-1.669955701E-1,-5.207388848E-2,9.850942612E0
1.782920796E0,-1.334767491E-1,2.208651006E-1,9.793481827E0
1.784919285E0,-1.095347255E-1,4.459200799E-1,8.926780701E0
1.786917618E0,-7.122749835E-2,2.400187254E-1,9.817423820E0
1.788915952E0,3.890577704E-2,-1.095347255E-1,1.056920338E1
1.790914285E0,5.386953708E-3,1.346738487E-1,1.006642151E1
1.792912618E0,-1.143231317E-1,4.363432527E-1,9.467870712E0
1.794910952E0,-5.686229095E-2,2.879027426E-1,9.060855865E0
1.796909285E0,6.284779310E-2,-7.122749835E-2,1.084214211E1
1.798907618E0,2.454056777E-2,1.777694821E-1,9.827000618E0
1.800905952E0,-7.601590455E-2,3.070563674E-1,9.156624794E0
1.802904285E0,3.890577704E-2,2.687491477E-1,1.042555141E1
1.804902671E0,-3.770867735E-2,3.645172119E-1,9.127894402E0
1.806901108E0,-6.165069342E-2,1.496376097E-2,1.009994030E1
1.808899598E0,-3.770867735E-2,1.059434265E-1,9.975440979E0
1.810898139E0,-9.995792061E-2,3.118447661E-1,8.926780701E0
1.812896733E0,-1.478419602E-1,2.017114908E-1,9.558850288E0
1.814895379E0,-9.516951442E-2,2.160767019E-1,9.678560257E0
1.816894077E0,1.017535757E-2,1.825578809E-1,9.525331497E0
1.818892827E0,-2.334346622E-2,5.985504249E-4,1.050695419E1
1.820891577E0,1.011550203E-1,1.921346933E-1,1.012388229E1
1.822890327E0,1.107318252E-1,3.645172119E-1,9.247604370E0
1.824889077E0,1.729810685E-1,5.081692934E-1,9.233239174E0
1.826887827E0,2.454056777E-2,1.777694821E-1,9.429563522E0
1.828886577E0,1.011550203E-1,1.538274586E-1,1.000895977E1
1.830885327E0,7.721300423E-2,2.543839216E-1,1.002332497E1
1.832884025E0,-4.249707982E-2,4.076128304E-1,9.601945877E0
1.834882566E0,-1.574187577E-1,4.363432527E-1,9.439140320E0
1.836881108E0,-9.995792061E-2,2.064998895E-1,1.013824749E1
1.838879650E0,-5.207388848E-2,2.932897024E-2,1.019570827E1
1.840878191E0,-6.643909961E-2,3.166331649E-1,9.458293915E0
1.842876733E0,-4.728548229E-2,4.650736749E-1,8.826224327E0
1.844875275E0,-1.526303589E-1,3.070563674E-1,1.023880386E1
1.846873816E0,-1.669955701E-1,2.448071241E-1,9.281123161E0
1.848872358E0,-8.080431074E-2,-1.622071713E-1,1.066018295E1
1.850870848E0,-1.376665942E-2,-1.095347255E-1,1.077510452E1
1.852869337E0,-8.559270948E-2,4.219780564E-1,9.664195061E0
1.854867827E0,-6.643909961E-2,6.853402257E-1,8.893261909E0
1.856866316E0,-7.122749835E-2,7.571662664E-1,8.491036415E0
1.858864806E0,-7.601590455E-2,3.309983909E-1,8.984241486E0
1.860863296E0,2.454056777E-2,-5.207388848E-2,1.120606136E1
1.862861785E0,5.386953708E-3,1.490390599E-1,9.927556992E0
1.864860275E0,3.411737457E-2,3.405751884E-1,9.458293915E0
1.866858764E0,-3.770867735E-2,4.315548539E-1,9.539696693E0
1.868857254E0,8.678980917E-2,4.459200799E-1,9.419986725E0
1.870855743E0,4.369417951E-2,1.203086376E-1,1.013345909E1
1.872854233E0,6.763619930E-2,-1.855506375E-2,1.063145256E1
1.874852775E0,3.411737457E-2,3.118447661E-1,9.501389503E0
1.876851368E0,-2.813187055E-2,4.650736749E-1,9.103952408E0
1.878850014E0,1.496376097E-2,3.357867897E-1,9.209297180E0
1.880848712E0,6.763619930E-2,1.250970364E-1,1.006642151E1
1.882847462E0,1.250970364E-1,4.076128304E-1,9.022548676E0
1.884846264E0,1.107318252E-1,2.160767019E-1,9.520543098E0
1.886845066E0,1.155202314E-1,-4.189853091E-3,1.099537086E1
1.888843921E0,1.681926697E-1,2.495955229E-1,1.011909389E1
1.890842775E0,1.490390599E-1,5.608417392E-1,9.132682800E0
1.892841629E0,1.250970364E-1,3.262099922E-1,9.046490669E0
1.894840483E0,1.442506462E-1,-1.143231317E-1,1.046385860E1
1.896839337E0,2.304419130E-1,1.496376097E-2,1.088523769E1
1.898838191E0,3.405751884E-1,2.160767019E-1,9.975440979E0
1.900837046E0,3.597288132E-1,6.901286244E-1,8.390480042E0
1.902835900E0,2.926911712E-1,3.022679687E-1,9.716867447E0
1.904834754E0,3.166331649E-1,1.155202314E-1,9.989806175E0
1.906833608E0,3.453635871E-1,-3.292027488E-2,1.001374817E1
1.908832202E0,3.357867897E-1,7.721300423E-2,1.011430550E1
1.910830796E0,3.836708367E-1,6.374561787E-1,8.797493935E0
1.912829389E0,3.453635871E-1,5.943605900E-1,8.989029884E0
1.914827983E0,4.171896577E-1,2.543839216E-1,1.015740108E1
1.916826577E0,4.219780564E-1,1.442506462E-1,1.032020664E1
1.918825171E0,4.315548539E-1,2.400187254E-1,1.041597462E1
1.920823764E0,3.884592354E-1,6.326677799E-1,9.051279068E0
1.922822358E0,4.124012291E-1,4.842272997E-1,9.405621529E0
1.924820952E0,3.453635871E-1,3.693056107E-1,9.415198326E0
1.926819546E0,3.932476342E-1,9.157821536E-2,9.625887871E0
1.928818139E0,4.746504724E-1,1.921346933E-1,1.036330223E1
1.930816733E0,4.890156984E-1,4.124012291E-1,9.405621529E0
1.932815327E0,4.842272997E-1,4.363432527E-1,9.745597839E0
1.934813921E0,5.177460909E-1,4.698620737E-1,9.850942612E0
1.936812514E0,5.656301379E-1,4.554968774E-1,9.664195061E0
1.938811108E0,5.560533404E-1,5.273229480E-1,9.683348656E0
1.940809754E0,4.602852762E-1,5.033808947E-1,9.668983459E0
1.942808452E0,4.938040972E-1,4.602852762E-1,9.716867447E0
1.944807202E0,5.225345492E-1,2.591723204E-1,1.025795746E1
1.946805952E0,4.794389009E-1,4.842272997E-1,9.764751434E0
1.948804702E0,5.273229480E-1,7.667431235E-1,8.917203903E0
1.950803452E0,4.363432527E-1,6.470330358E-1,8.902838707E0
1.952802202E0,4.650736749E-1,2.543839216E-1,1.052610779E1
1.954800952E0,5.321113467E-1,4.698620737E-1,9.827000618E0
1.956799702E0,5.464765429E-1,6.135141850E-1,9.750386238E0
1.958798452E0,5.752069354E-1,6.997054219E-1,9.635464668E0
1.960797202E0,5.704185367E-1,5.321113467E-1,9.894038200E0
1.962795952E0,5.656301379E-1,4.459200799E-1,1.038724422E1
1.964794702E0,5.608417392E-1,6.039373875E-1,9.530119896E0
1.966793452E0,4.746504724E-1,5.895721912E-1,9.247604370E0
1.968792202E0,4.554968774E-1,4.890156984E-1,9.630676270E0
1.970790952E0,4.938040972E-1,3.597288132E-1,1.041597462E1
1.972789702E0,4.698620737E-1,5.799953341E-1,9.400833130E0
1.974788452E0,4.650736749E-1,5.273229480E-1,9.716867447E0
1.976787202E0,4.890156984E-1,4.315548539E-1,9.932345390E0
1.978785952E0,5.081692934E-1,5.704185367E-1,9.448717117E0
1.980784702E0,5.081692934E-1,6.470330358E-1,8.888473511E0
1.982783452E0,3.932476342E-1,1.490390599E-1,1.032499504E1
1.984782202E0,4.650736749E-1,2.304419130E-1,1.072243214E1
1.986780587E0,5.177460909E-1,6.326677799E-1,9.233239174E0
1.988778973E0,4.171896577E-1,8.481459618E-1,9.199720383E0
1.990777254E0,3.453635871E-1,8.242039084E-1,8.778340340E0
1.992775535E0,2.591723204E-1,4.698620737E-1,9.199720383E0
1.994773816E0,1.921346933E-1,3.262099922E-1,1.056920338E1
1.996772098E0,1.729810685E-1,1.873462796E-1,1.112944698E1
1.998770379E0,2.352303118E-1,5.081692934E-1,1.016218948E1
2.000768660E0,1.298854351E-1,7.954735160E-1,9.094375610E0
2.002766941E0,-4.189853091E-3,8.146271110E-1,9.147047997E0
2.004765275E0,4.369417951E-2,3.549404144E-1,1.001853657E1
2.006763660E0,2.932897024E-2,2.208651006E-1,1.021965027E1
2.008762098E0,3.411737457E-2,5.081692934E-1,9.917980194E0
2.010760587E0,6.763619930E-2,1.197699428E0,8.926780701E0
2.012759129E0,1.203086376E-1,1.255160213E0,6.968324184E0
2.014757723E0,-1.238999367E-1,-1.286883354E-1,1.059793377E1
2.016756368E0,5.386953708E-3,-3.633201122E-1,1.296819305E1
2.018755066E0,6.284779310E-2,3.453635871E-1,9.027337074E0
2.020753816E0,7.242459804E-2,6.183025837E-1,9.860519409E0
2.022752618E0,1.490390599E-1,7.188590765E-1,9.515754700E0
2.024751473E0,-1.376665942E-2,4.076128304E-1,8.414422035E0
2.026750327E0,-9.995792061E-2,3.411737457E-2,1.112944698E1
2.028749181E0,-1.334767491E-1,5.799953341E-1,9.118317604E0
2.030748035E0,-1.574187577E-1,7.188590765E-1,9.161413193E0
2.032746785E0,-5.207388848E-2,6.422445774E-1,9.827000618E0
2.034745431E0,-4.249707982E-2,5.225345492E-1,9.439140320E0
2.036743973E0,-1.382651478E-1,4.219780564E-1,1.005684471E1
2.038742514E0,6.284779310E-2,6.901286244E-1,1.017176628E1
2.040741056E0,1.496376097E-2,7.667431235E-1,8.898050308E0
2.042739598E0,-1.334767491E-1,4.076128304E-1,1.055962658E1
2.044738139E0,-1.574187577E-1,5.177460909E-1,1.002332497E1
2.046736681E0,-2.388216257E-1,6.661866307E-1,9.798270226E0
2.048735223E0,-1.526303589E-1,6.326677799E-1,9.702502251E0
2.050733764E0,-2.196680009E-1,5.177460909E-1,9.261969566E0
2.052732306E0,-3.345896900E-1,2.543839216E-1,1.021486187E1
2.054730848E0,-2.914940715E-1,1.496376097E-2,1.006642151E1
2.056729389E0,-3.776853085E-1,3.022679687E-1,9.779116631E0
2.058727931E0,-2.436100245E-1,9.439139962E-1,8.945934296E0
2.060726473E0,-2.627636492E-1,1.034893632E0,7.672219276E0
2.062725014E0,-3.824737072E-1,3.022679687E-1,9.659406662E0
2.064723556E0,-1.717839688E-1,-1.669955701E-1,1.201530170E1
2.066722150E0,-1.526303589E-1,2.926911712E-1,9.132682800E0
2.068720743E0,-1.813607812E-1,4.363432527E-1,9.673771858E0
2.070719337E0,-1.478419602E-1,2.543839216E-1,9.989806175E0
2.072717931E0,-2.148796022E-1,1.496376097E-2,9.917980194E0
2.074716525E0,-2.148796022E-1,8.200141042E-2,1.006642151E1
2.076715118E0,-2.723404467E-1,3.070563674E-1,9.319430351E0
2.078713712E0,-1.238999367E-1,1.490390599E-1,9.630676270E0
2.080712306E0,-1.238999367E-1,-4.189853091E-3,1.008557510E1
2.082710900E0,-2.196680009E-1,1.394622475E-1,1.011909389E1
2.084709493E0,-2.819172442E-1,3.980360329E-1,8.831012726E0
2.086707983E0,-2.388216257E-1,1.825578809E-1,9.424775124E0
2.088706473E0,-1.669955701E-1,-1.376665942E-2,1.039203262E1
2.090704962E0,-6.643909961E-2,-5.686229095E-2,1.027232265E1
2.092703452E0,-8.559270948E-2,1.975216344E-2,9.563638687E0
2.094701941E0,-1.526303589E-1,1.059434265E-1,8.917203903E0
2.096700431E0,-2.388216257E-1,-3.770867735E-2,9.501389503E0
2.098698921E0,-3.010708690E-1,3.980360329E-1,8.333019257E0
2.100697410E0,-3.920505345E-1,-1.334767491E-1,1.048301220E1
2.102695900E0,-2.196680009E-1,-6.410474777E-1,1.107677460E1
2.104694285E0,-1.861491799E-1,-1.430535465E-1,9.673771858E0
2.106692671E0,-1.382651478E-1,1.825578809E-1,9.103952408E0
2.108691056E0,-1.765723825E-1,-2.723404467E-1,1.070806694E1
2.110689441E0,-2.388216257E-1,-3.968389332E-1,1.000417137E1
2.112687827E0,-1.765723825E-1,-2.813187055E-2,9.759963036E0
2.114686212E0,-1.574187577E-1,2.639607489E-1,8.917203903E0
2.116684598E0,-1.334767491E-1,-6.165069342E-2,9.750386238E0
2.118682983E0,-1.957259923E-1,-9.038111567E-2,9.850942612E0
2.120681368E0,-9.995792061E-2,-5.686229095E-2,9.228450775E0
2.122679754E0,-4.728548229E-2,-3.770867735E-2,9.783905029E0
2.124678139E0,-9.516951442E-2,4.602852762E-1,8.620323181E0
2.126676525E0,5.805939063E-2,5.805939063E-2,1.011909389E1
2.128674910E0,7.721300423E-2,-4.495113790E-1,1.054047298E1
2.130673296E0,-3.292027488E-2,-2.579752207E-1,1.047343540E1
2.132671681E0,-3.770867735E-2,7.721300423E-2,9.439140320E0
2.134670066E0,-5.207388848E-2,4.554968774E-1,8.778340340E0
2.136668452E0,6.284779310E-2,2.208651006E-1,9.946710587E0
2.138666837E0,1.394622475E-1,-1.143231317E-1,9.884461403E0
2.140665223E0,-4.189853091E-3,6.763619930E-2,9.726444244E0
2.142663608E0,1.298854351E-1,5.386953708E-3,1.017655468E1
2.144661993E0,2.495955229E-1,4.369417951E-2,9.908403397E0
2.146660379E0,1.921346933E-1,2.400187254E-1,9.587580681E0
2.148658764E0,1.203086376E-1,3.357867897E-1,9.625887871E0
2.150657150E0,1.298854351E-1,2.831143439E-1,9.831789017E0
2.152655535E0,2.495955229E-1,5.273229480E-1,9.520543098E0
2.154653921E0,2.160767019E-1,3.453635871E-1,8.787917137E0
2.156652306E0,2.352303118E-1,-2.771288455E-1,1.107677460E1
2.158650691E0,2.160767019E-1,-2.148796022E-1,1.047343540E1
2.160649129E0,1.394622475E-1,2.639607489E-1,9.223662376E0
2.162647618E0,1.729810685E-1,6.613982320E-1,8.677783966E0
2.164646108E0,2.352303118E-1,4.267664552E-1,8.577227592E0
2.166644598E0,2.448071241E-1,-2.723404467E-1,9.999382973E0
2.168643087E0,1.442506462E-1,-5.548562407E-1,1.166574764E1
2.170641577E0,3.411737457E-2,3.980360329E-1,8.682572365E0
2.172640066E0,1.059434265E-1,2.352303118E-1,9.448717117E0
2.174638452E0,1.729810685E-1,1.496376097E-2,1.093312168E1
2.176636681E0,5.985504249E-4,-8.559270948E-2,8.826224327E0
2.178634858E0,1.011550203E-1,-4.782418013E-1,1.096664047E1
2.180633035E0,1.011550203E-1,-1.957259923E-1,1.081341171E1
2.182631212E0,1.155202314E-1,5.081692934E-1,8.802282333E0
2.184629389E0,9.636662155E-2,3.693056107E-1,8.744821548E0
2.186627566E0,4.848258570E-2,-4.249707982E-2,9.611522675E0
2.188625796E0,5.985504249E-4,-1.430535465E-1,9.965864182E0
2.190624077E0,1.250970364E-1,-3.250128925E-1,1.015261269E1
2.192622410E0,3.890577704E-2,1.586158574E-1,9.563638687E0
2.194620796E0,1.538274586E-1,4.746504724E-1,8.328230858E0
2.196619233E0,3.411737457E-2,1.538274586E-1,8.979453087E0
2.198617723E0,3.890577704E-2,-3.489548862E-1,1.170884323E1
2.200616264E0,1.538274586E-1,-1.861491799E-1,1.015261269E1
2.202614858E0,-2.334346622E-2,-8.080431074E-2,9.247604370E0
2.204613452E0,2.932897024E-2,-2.334346622E-2,1.013824749E1
2.206612046E0,-7.122749835E-2,6.613982320E-1,8.050502777E0
2.208610639E0,2.932897024E-2,1.011550203E-1,1.032020664E1
2.210609233E0,-3.292027488E-2,-4.207809567E-1,1.089481449E1
2.212607827E0,-2.334346622E-2,-1.095347255E-1,1.036330223E1
2.214606264E0,1.107318252E-1,4.219780564E-1,8.625111580E0
2.216604702E0,1.346738487E-1,3.309983909E-1,8.668207169E0
2.218603139E0,8.678980917E-2,-3.537433147E-1,1.044470501E1
2.220601473E0,5.805939063E-2,-4.782418013E-1,1.094269848E1
2.222599806E0,3.890577704E-2,-1.574187577E-1,9.970652580E0
2.224598139E0,5.985504249E-4,3.836708367E-1,9.386467934E0
2.226596473E0,4.369417951E-2,4.124012291E-1,8.586804390E0
2.228594806E0,4.369417951E-2,1.975216344E-2,1.012388229E1
2.230593139E0,6.763619930E-2,-1.478419602E-1,9.487024307E0
2.232591473E0,1.011550203E-1,-2.819172442E-1,1.026753426E1
2.234589806E0,-8.978256024E-3,1.394622475E-1,9.161413193E0
2.236588139E0,-9.038111567E-2,3.022679687E-1,8.625111580E0
2.238586473E0,7.721300423E-2,-1.861491799E-1,1.030584145E1
2.240584806E0,1.017535757E-2,-4.249707982E-2,9.740809441E0
2.242583139E0,-1.143231317E-1,-1.669955701E-1,1.004247856E1
2.244581525E0,-8.559270948E-2,-2.148796022E-1,1.083735371E1
2.246579962E0,-4.189853091E-3,4.848258570E-2,9.424775124E0
2.248578452E0,-1.669955701E-1,1.777694821E-1,9.621099472E0
2.250576993E0,-6.643909961E-2,6.613982320E-1,8.893261909E0
2.252575587E0,-1.622071713E-1,-1.334767491E-1,8.084021568E0
2.254574233E0,-1.143231317E-1,-7.846996188E-1,1.341351509E1
2.256572879E0,8.200141042E-2,2.639607489E-1,9.170989990E0
2.258571525E0,1.059434265E-1,5.225345492E-1,8.898050308E0
2.260570171E0,1.203086376E-1,4.650736749E-1,8.845377922E0
2.262568816E0,3.890577704E-2,7.242459804E-2,9.223662376E0
2.264567462E0,7.721300423E-2,-3.202244639E-1,1.088523769E1
2.266566108E0,1.975216344E-2,9.636662155E-2,9.228450775E0
2.268564546E0,-9.995792061E-2,2.208651006E-1,1.024359226E1
2.270562827E0,-1.855506375E-2,4.746504724E-1,9.917980194E0
2.272561056E0,3.890577704E-2,5.704185367E-1,9.118317604E0
2.274559285E0,3.411737457E-2,2.495955229E-1,1.028189945E1
2.276557514E0,2.454056777E-2,-6.165069342E-2,1.047343540E1
2.278555743E0,-2.334346622E-2,2.687491477E-1,1.052131939E1
2.280553973E0,4.848258570E-2,8.433575630E-1,7.997830868E0
2.282552254E0,1.107318252E-1,4.267664552E-1,8.864531517E0
2.284550587E0,-4.249707982E-2,3.262099922E-1,9.846154213E0
2.286548973E0,-4.728548229E-2,-2.334346622E-2,1.020049667E1
2.288547410E0,7.242459804E-2,-4.189853091E-3,1.075116253E1
2.290545900E0,7.721300423E-2,3.166331649E-1,9.611522675E0
2.292544441E0,1.969230920E-1,4.315548539E-1,8.821435928E0
2.294543035E0,1.059434265E-1,2.448071241E-1,9.477447510E0
2.296541629E0,5.327098817E-2,5.386953708E-3,9.855731010E0
2.298540223E0,8.678980917E-2,-2.771288455E-1,1.085171890E1
2.300538816E0,1.442506462E-1,-1.334767491E-1,1.009515190E1
2.302537410E0,1.250970364E-1,1.777694821E-1,9.118317604E0
2.304536004E0,8.678980917E-2,1.496376097E-2,9.357737541E0
2.306534598E0,1.298854351E-1,-1.861491799E-1,9.889249802E0
2.308533191E0,7.721300423E-2,1.203086376E-1,9.319430351E0
2.310531785E0,-6.643909961E-2,-1.855506375E-2,9.372102737E0
2.312530379E0,-8.559270948E-2,-3.058592677E-1,1.094269848E1
2.314528973E0,-9.038111567E-2,1.017535757E-2,9.745597839E0
2.316527566E0,-4.728548229E-2,1.538274586E-1,9.218873978E0
2.318526160E0,7.242459804E-2,3.932476342E-1,9.228450775E0
2.320524754E0,7.721300423E-2,3.788824081E-1,8.567650795E0
2.322523348E0,1.107318252E-1,-2.813187055E-2,1.097621727E1
2.324521941E0,9.157821536E-2,4.076128304E-1,9.463082314E0
2.326520483E0,8.200141042E-2,2.783259451E-1,9.539696693E0
2.328519025E0,2.543839216E-1,-1.861491799E-1,1.074158573E1
2.330517566E0,2.735375464E-1,1.059434265E-1,9.664195061E0
2.332515848E0,2.017114908E-1,1.155202314E-1,9.123106003E0
2.334514129E0,1.873462796E-1,1.017535757E-2,1.039682102E1
2.336512410E0,1.107318252E-1,5.386953708E-3,9.668983459E0
2.338510691E0,1.203086376E-1,1.059434265E-1,9.951498985E0
2.340508973E0,1.873462796E-1,1.107318252E-1,9.994594574E0
2.342507254E0,2.304419130E-1,-1.861491799E-1,9.381679535E0
2.344505535E0,6.763619930E-2,-1.669955701E-1,9.443928719E0
2.346503816E0,9.157821536E-2,3.411737457E-2,9.611522675E0
2.348502098E0,1.298854351E-1,1.729810685E-1,9.242815971E0
2.350500379E0,6.763619930E-2,7.242459804E-2,9.017760277E0
2.352498660E0,6.763619930E-2,-3.920505345E-1,1.038724422E1
2.354496941E0,1.538274586E-1,-3.585317135E-1,9.764751434E0
2.356495223E0,1.107318252E-1,5.327098817E-2,8.783128738E0
2.358493504E0,-8.978256024E-3,-2.244564146E-1,1.053568459E1
2.360491785E0,8.678980917E-2,-5.452794433E-1,1.102410126E1
2.362490066E0,9.157821536E-2,-3.345896900E-1,9.530119896E0
2.364488400E0,9.157821536E-2,2.112883031E-1,9.209297180E0
2.366486785E0,1.681926697E-1,3.411737457E-2,9.372102737E0
2.368485223E0,1.442506462E-1,-4.973953962E-1,1.007599831E1
2.370483712E0,2.591723204E-1,-6.266822815E-1,1.108156300E1
2.372482254E0,2.543839216E-1,6.284779310E-2,8.433575630E0
2.374480848E0,2.256535143E-1,1.586158574E-1,9.214085579E0
2.376479493E0,3.118447661E-1,1.729810685E-1,9.601945877E0
2.378478191E0,3.214215636E-1,-2.388216257E-1,9.635464668E0
2.380476941E0,2.448071241E-1,-3.920505345E-1,1.034893703E1
2.382475743E0,2.639607489E-1,-8.080431074E-2,1.004247856E1
2.384474546E0,2.974795699E-1,5.805939063E-2,9.170989990E0
2.386473348E0,3.118447661E-1,-2.148796022E-1,1.065539455E1
2.388472150E0,2.543839216E-1,-9.516951442E-2,9.879673004E0
2.390470952E0,2.256535143E-1,-9.038111567E-2,9.285911560E0
2.392469754E0,3.262099922E-1,-2.334346622E-2,9.736021042E0
2.394468556E0,3.309983909E-1,2.932897024E-2,9.046490669E0
2.396467358E0,2.639607489E-1,-1.909375787E-1,9.937133789E0
2.398466160E0,2.208651006E-1,-2.771288455E-1,1.006642151E1
2.400464962E0,1.825578809E-1,-2.531868219E-1,9.941922188E0
2.402463764E0,2.112883031E-1,-3.770867735E-2,9.889249802E0
2.404462566E0,1.442506462E-1,2.064998895E-1,9.103952408E0
2.406461368E0,1.059434265E-1,3.022679687E-1,9.534908295E0
2.408460171E0,2.352303118E-1,2.064998895E-1,9.123106003E0
2.410458973E0,2.256535143E-1,-1.765723825E-1,9.678560257E0
2.412457671E0,1.873462796E-1,-2.723404467E-1,1.038245583E1
2.414456108E0,2.160767019E-1,-1.861491799E-1,1.098100567E1
2.416454493E0,2.735375464E-1,1.825578809E-1,9.113529205E0
2.418452879E0,1.442506462E-1,1.729810685E-1,8.921992302E0
2.420451264E0,1.203086376E-1,-2.053027898E-1,1.063624096E1
2.422449546E0,1.681926697E-1,3.890577704E-2,9.793481827E0
2.424447827E0,1.346738487E-1,8.678980917E-2,9.309853554E0
2.426446108E0,2.448071241E-1,2.017114908E-1,9.812635422E0
2.428444389E0,2.017114908E-1,2.208651006E-1,8.763975143E0
2.430442671E0,1.490390599E-1,6.763619930E-2,1.000895977E1
2.432440952E0,1.155202314E-1,-1.334767491E-1,1.007599831E1
2.434439233E0,1.346738487E-1,-2.292448133E-1,1.085650730E1
2.436437514E0,1.490390599E-1,4.219780564E-1,9.070432663E0
2.438435796E0,9.636662155E-2,5.464765429E-1,9.132682800E0
2.440434077E0,5.985504249E-4,2.256535143E-1,9.716867447E0
2.442432358E0,1.442506462E-1,-4.249707982E-2,1.110071659E1
2.444430639E0,1.873462796E-1,5.033808947E-1,9.419986725E0
2.446428921E0,1.346738487E-1,5.033808947E-1,8.840589523E0
2.448427202E0,1.969230920E-1,1.059434265E-1,1.030584145E1
2.450425483E0,1.777694821E-1,4.124012291E-1,9.621099472E0
2.452423764E0,1.250970364E-1,7.188590765E-1,8.629899979E0
2.454422046E0,1.346738487E-1,2.879027426E-1,9.597157478E0
2.456420327E0,1.346738487E-1,-3.728969097E-1,1.053089619E1
2.458418608E0,1.298854351E-1,-3.298012912E-1,1.094269848E1
2.460416889E0,8.678980917E-2,2.974795699E-1,9.343372345E0
2.462415171E0,-1.376665942E-2,5.033808947E-1,8.864531517E0
2.464413452E0,-6.643909961E-2,5.129576921E-1,8.821435928E0
2.466411733E0,-9.038111567E-2,-4.728548229E-2,9.515754700E0
2.468410014E0,-1.047463268E-1,-5.644330382E-1,1.062666416E1
2.470408296E0,1.017535757E-2,2.932897024E-2,1.021007347E1
2.472406577E0,-7.122749835E-2,4.650736749E-1,8.309077263E0
2.474404858E0,-7.601590455E-2,1.873462796E-1,9.961075783E0
2.476403139E0,-9.038111567E-2,-2.627636492E-1,1.113902378E1
2.478401473E0,-1.717839688E-1,-2.196680009E-1,9.515754700E0
2.480399858E0,-2.436100245E-1,-4.064157307E-1,1.053089619E1
2.482398296E0,-3.010708690E-1,-1.095347255E-1,9.956287384E0
2.484396785E0,-2.914940715E-1,2.879027426E-1,9.477447510E0
2.486395327E0,-2.771288455E-1,4.171896577E-1,8.318654060E0
2.488393868E0,-3.106476665E-1,1.496376097E-2,1.012388229E1
2.490392410E0,-2.292448133E-1,6.284779310E-2,9.941922188E0
2.492390952E0,-1.478419602E-1,3.693056107E-1,9.759963036E0
2.494389493E0,-1.143231317E-1,4.650736749E-1,8.716091156E0
2.496388035E0,-1.855506375E-2,3.932476342E-1,9.807847023E0
2.498386577E0,2.454056777E-2,1.107318252E-1,1.021965027E1
2.500385118E0,-5.686229095E-2,-1.478419602E-1,1.036809063E1
2.502383660E0,-8.559270948E-2,-4.249707982E-2,1.060751057E1
2.504382202E0,-4.728548229E-2,2.831143439E-1,9.549273491E0
2.506380639E0,-7.122749835E-2,5.943605900E-1,8.471882820E0
2.508379077E0,-5.207388848E-2,4.746504724E-1,9.922768593E0
2.510377358E0,-5.207388848E-2,1.250970364E-1,1.018134308E1
2.512375639E0,-8.080431074E-2,1.107318252E-1,9.870096207E0
2.514373921E0,5.985504249E-4,5.321113467E-1,9.616311073E0
2.516372202E0,-9.038111567E-2,8.002619147E-1,7.959523678E0
2.518370483E0,-9.995792061E-2,-3.441664875E-1,9.994594574E0
2.520368764E0,7.721300423E-2,-5.740098357E-1,1.352843666E1
2.522367046E0,8.200141042E-2,4.794389009E-1,8.419210434E0
2.524365327E0,4.369417951E-2,7.236474752E-1,9.017760277E0
2.526363608E0,5.985504249E-4,7.906851172E-1,8.816647530E0
2.528361941E0,-7.601590455E-2,5.799953341E-1,9.410409927E0
2.530360327E0,-9.516951442E-2,1.873462796E-1,1.068412495E1
2.532358764E0,-9.038111567E-2,9.157821536E-2,9.985017776E0
2.534357202E0,7.242459804E-2,5.177460909E-1,9.788693428E0
2.536355639E0,-1.855506375E-2,6.422445774E-1,8.577227592E0
2.538354077E0,-9.995792061E-2,2.017114908E-1,1.000417137E1
2.540352514E0,-6.643909961E-2,2.448071241E-1,1.028189945E1
2.542350952E0,3.890577704E-2,6.613982320E-1,8.864531517E0
2.544349389E0,3.411737457E-2,4.890156984E-1,9.204508781E0
2.546347827E0,-2.334346622E-2,-6.643909961E-2,1.009515190E1
2.548346264E0,2.454056777E-2,-3.441664875E-1,1.118690777E1
2.550344702E0,6.763619930E-2,3.166331649E-1,1.011909389E1
2.552343139E0,7.242459804E-2,4.890156984E-1,8.792705536E0
2.554341577E0,-3.770867735E-2,1.538274586E-1,9.185355186E0
2.556340014E0,1.107318252E-1,2.591723204E-1,9.223662376E0
2.558338452E0,6.763619930E-2,2.454056777E-2,1.009515190E1
2.560336889E0,3.890577704E-2,3.890577704E-2,1.004726696E1
2.562335327E0,5.805939063E-2,-1.376665942E-2,1.005684471E1
2.564333764E0,1.155202314E-1,2.017114908E-1,1.010472870E1
2.566332202E0,4.369417951E-2,8.050503135E-1,8.491036415E0
2.568330639E0,5.805939063E-2,4.171896577E-1,8.945934296E0
2.570329077E0,9.636662155E-2,-1.855506375E-2,1.058356857E1
2.572327514E0,6.284779310E-2,6.284779310E-2,1.040639782E1
2.574325796E0,1.155202314E-1,3.453635871E-1,1.021965027E1
2.576324077E0,7.721300423E-2,5.273229480E-1,9.396044731E0
2.578322358E0,4.848258570E-2,5.799953341E-1,9.740809441E0
2.580320639E0,4.848258570E-2,2.543839216E-1,9.807847023E0
2.582318921E0,5.805939063E-2,2.256535143E-1,1.036809063E1
2.584317202E0,5.805939063E-2,4.554968774E-1,9.170989990E0
2.586315483E0,1.490390599E-1,6.278793812E-1,9.103952408E0
2.588313764E0,9.157821536E-2,2.208651006E-1,9.285911560E0
2.590312098E0,7.242459804E-2,8.200141042E-2,9.956287384E0
2.592310483E0,1.107318252E-1,5.386953708E-3,1.029147625E1
2.594308868E0,7.721300423E-2,3.411737457E-2,9.827000618E0
2.596307254E0,6.763619930E-2,1.155202314E-1,9.985017776E0
2.598305639E0,6.284779310E-2,2.974795699E-1,9.692925453E0
2.600304025E0,-3.770867735E-2,4.363432527E-1,8.989029884E0
2.602302410E0,5.386953708E-3,1.729810685E-1,1.008557510E1
2.604300796E0,-9.038111567E-2,-9.038111567E-2,1.014303589E1
2.606299181E0,-9.038111567E-2,-2.053027898E-1,1.108156300E1
2.608297566E0,-8.080431074E-2,3.597288132E-1,8.706514359E0
2.610295952E0,-9.516951442E-2,3.262099922E-1,8.759186745E0
2.612294337E0,-6.165069342E-2,2.017114908E-1,1.019570827E1
2.614292723E0,-1.813607812E-1,3.262099922E-1,9.127894402E0
2.616291108E0,-1.047463268E-1,2.687491477E-1,1.006642151E1
2.618289493E0,-3.292027488E-2,2.495955229E-1,9.166201591E0
2.620287879E0,-1.238999367E-1,3.357867897E-1,9.410409927E0
2.622286264E0,-3.770867735E-2,2.932897024E-2,1.022922707E1
2.624284650E0,-3.770867735E-2,-2.813187055E-2,1.012388229E1
2.626283035E0,-4.189853091E-3,3.022679687E-1,9.573215485E0
2.628281421E0,8.678980917E-2,2.783259451E-1,9.510966301E0
2.630279806E0,1.442506462E-1,1.011550203E-1,1.053568459E1
2.632278191E0,1.017535757E-2,2.448071241E-1,1.004726696E1
2.634276577E0,-7.601590455E-2,3.214215636E-1,9.362525940E0
2.636275014E0,-1.238999367E-1,3.549404144E-1,9.333795547E0
2.638273452E0,-1.143231317E-1,4.459200799E-1,9.295488358E0
2.640271889E0,-6.165069342E-2,3.884592354E-1,9.999382973E0
2.642270327E0,-3.292027488E-2,2.926911712E-1,9.319430351E0
2.644268764E0,-3.292027488E-2,2.495955229E-1,1.007599831E1
2.646267202E0,-4.189853091E-3,2.735375464E-1,1.019091988E1
2.648265639E0,-2.334346622E-2,1.729810685E-1,9.558850288E0
2.650264077E0,-1.382651478E-1,1.681926697E-1,1.016218948E1
2.652262514E0,-1.238999367E-1,1.394622475E-1,1.000417137E1
2.654261004E0,-1.957259923E-1,3.836708367E-1,9.534908295E0
2.656259546E0,-1.861491799E-1,5.656301379E-1,8.969876289E0
2.658258139E0,-1.526303589E-1,6.470330358E-1,9.223662376E0
2.660256785E0,-2.813187055E-2,5.321113467E-1,8.989029884E0
2.662255483E0,1.975216344E-2,2.017114908E-1,1.047343540E1
2.664254233E0,2.454056777E-2,2.064998895E-1,1.034893703E1
2.666252983E0,-1.376665942E-2,1.921346933E-1,9.664195061E0
2.668251733E0,-2.334346622E-2,9.157821536E-2,1.043033981E1
2.670250483E0,-1.855506375E-2,1.586158574E-1,1.054526138E1
2.672249233E0,-4.249707982E-2,6.613982320E-1,9.051279068E0
2.674247983E0,-2.005143911E-1,7.523778677E-1,8.280346870E0
2.676246264E0,-1.191115379E-1,4.315548539E-1,1.066975975E1
2.678244546E0,1.975216344E-2,5.799953341E-1,9.779116631E0
2.680242827E0,-2.813187055E-2,9.391255975E-1,8.486248016E0
2.682241108E0,-2.334346622E-2,7.092822790E-1,9.343372345E0
2.684239389E0,-2.334346622E-2,6.135141850E-1,9.898826599E0
2.686237671E0,-7.122749835E-2,3.980360329E-1,1.019570827E1
2.688236004E0,4.369417951E-2,5.129576921E-1,1.042076302E1
2.690234389E0,6.763619930E-2,6.087257862E-1,9.645041466E0
2.692232827E0,1.496376097E-2,6.326677799E-1,9.736021042E0
2.694231316E0,8.200141042E-2,8.960300088E-1,9.400833130E0
2.696229858E0,1.155202314E-1,6.997054219E-1,9.621099472E0
2.698228452E0,4.369417951E-2,4.842272997E-1,9.755174637E0
2.700227098E0,5.327098817E-2,4.411316514E-1,9.731232643E0
2.702225796E0,1.107318252E-1,6.374561787E-1,9.860519409E0
2.704224598E0,1.729810685E-1,4.746504724E-1,9.611522675E0
2.706223504E0,3.411737457E-2,3.022679687E-1,1.027711105E1
2.708222462E0,8.200141042E-2,6.039373875E-1,9.673771858E0
2.710221473E0,1.496376097E-2,1.586158574E-1,1.073679733E1
2.712220535E0,-7.122749835E-2,2.639607489E-1,9.501389503E0
2.714219650E0,-7.601590455E-2,4.842272997E-1,9.218873978E0
2.716218764E0,1.017535757E-2,6.039373875E-1,9.817423820E0
2.718217879E0,-3.770867735E-2,7.763199210E-1,9.075222015E0
2.720216681E0,-1.095347255E-1,5.177460909E-1,1.024838066E1
2.722215379E0,-9.038111567E-2,4.507084787E-1,1.007599831E1
2.724214025E0,-9.038111567E-2,5.033808947E-1,9.903614998E0
2.726212618E0,-9.995792061E-2,6.661866307E-1,9.075222015E0
2.728211212E0,-1.143231317E-1,5.752069354E-1,8.787917137E0
2.730209806E0,-5.686229095E-2,5.081692934E-1,9.860519409E0
2.732208400E0,-3.770867735E-2,4.698620737E-1,9.635464668E0
2.734206993E0,-2.334346622E-2,4.554968774E-1,9.985017776E0
2.736205587E0,-6.165069342E-2,-4.728548229E-2,1.123479176E1
2.738204181E0,-1.047463268E-1,1.346738487E-1,1.044949341E1
2.740202775E0,-5.207388848E-2,8.433575630E-1,9.127894402E0
2.742201421E0,-8.559270948E-2,1.202487826E0,7.456741333E0
2.744200118E0,-2.148796022E-1,8.912416101E-1,9.482235909E0
2.746198868E0,-5.686229095E-2,1.538274586E-1,1.044470501E1
2.748197671E0,-5.686229095E-2,-2.334346622E-2,1.117254257E1
2.750196525E0,-5.686229095E-2,6.278793812E-1,1.026274586E1
2.752195379E0,-9.038111567E-2,8.720879555E-1,8.816647530E0
2.754194233E0,-1.095347255E-1,6.135141850E-1,9.530119896E0
2.756193087E0,-2.053027898E-1,6.805518270E-1,9.305065155E0
2.758191941E0,-3.250128925E-1,6.997054219E-1,9.089587212E0
2.760190796E0,-2.627636492E-1,5.943605900E-1,9.937133789E0
2.762189650E0,-1.765723825E-1,5.225345492E-1,9.563638687E0
2.764188504E0,-1.095347255E-1,1.586158574E-1,1.048301220E1
2.766187358E0,-1.855506375E-2,1.203086376E-1,1.073200893E1
2.768186212E0,-9.038111567E-2,3.884592354E-1,9.874884605E0
2.770185066E0,-2.053027898E-1,5.416881442E-1,9.482235909E0
2.772183921E0,-2.436100245E-1,8.481459618E-1,9.218873978E0
2.774182775E0,-3.154360652E-1,1.006163239E0,8.021772385E0
2.776181368E0,-2.914940715E-1,9.534908533E-1,9.103952408E0
2.778179858E0,-1.813607812E-1,5.943605900E-1,1.040639782E1
2.780178348E0,-2.196680009E-1,3.788824081E-1,8.644265175E0
2.782176837E0,-1.526303589E-1,-3.298012912E-1,1.277186871E1
2.784175327E0,2.454056777E-2,4.411316514E-1,1.114381218E1
2.786173816E0,-2.334346622E-2,1.073200941E0,8.155848503E0
2.788172306E0,3.411737457E-2,7.284358740E-1,9.721655846E0
2.790170796E0,-3.770867735E-2,4.602852762E-1,9.635464668E0
2.792169285E0,-6.643909961E-2,6.087257862E-1,9.448717117E0
2.794167775E0,-6.165069342E-2,4.267664552E-1,9.400833130E0
2.796166316E0,-7.122749835E-2,4.171896577E-1,9.894038200E0
2.798164910E0,-4.249707982E-2,8.194155097E-1,8.720879555E0
2.800163556E0,1.017535757E-2,6.613982320E-1,8.845377922E0
2.802162254E0,1.011550203E-1,2.831143439E-1,1.055962658E1
2.804161004E0,6.763619930E-2,1.825578809E-1,1.010472870E1
2.806159806E0,1.975216344E-2,1.586158574E-1,1.070327854E1
2.808158660E0,1.346738487E-1,3.788824081E-1,9.668983459E0
2.810157566E0,-3.292027488E-2,2.926911712E-1,9.357737541E0
2.812156525E0,-1.855506375E-2,1.969230920E-1,1.013824749E1
2.814155483E0,5.327098817E-2,4.842272997E-1,9.285911560E0
2.816154441E0,1.394622475E-1,6.518214345E-1,9.285911560E0
2.818153400E0,7.721300423E-2,6.135141850E-1,9.123106003E0
2.820152358E0,1.496376097E-2,2.400187254E-1,1.012867069E1
2.822150952E0,-2.334346622E-2,1.825578809E-1,9.740809441E0
2.824149389E0,3.411737457E-2,2.256535143E-1,9.951498985E0
2.826147775E0,7.242459804E-2,3.980360329E-1,1.007599831E1
2.828146160E0,1.681926697E-1,4.554968774E-1,9.678560257E0
2.830144546E0,6.284779310E-2,2.926911712E-1,9.199720383E0
2.832142931E0,-4.189853091E-3,5.386953708E-3,1.002332497E1
2.834141316E0,2.932897024E-2,1.586158574E-1,1.026274586E1
2.836139702E0,1.017535757E-2,5.560533404E-1,9.348160744E0
2.838138087E0,5.805939063E-2,7.715315223E-1,9.132682800E0
2.840136473E0,1.394622475E-1,6.039373875E-1,9.616311073E0
2.842134858E0,3.411737457E-2,3.836708367E-1,9.463082314E0
2.844133243E0,1.975216344E-2,-7.601590455E-2,1.064581776E1
2.846131629E0,4.369417951E-2,-2.813187055E-2,1.096185207E1
2.848130014E0,1.496376097E-2,6.087257862E-1,9.510966301E0
2.850128400E0,3.890577704E-2,7.428010702E-1,8.735244751E0
2.852126785E0,3.411737457E-2,3.118447661E-1,9.941922188E0
2.854125118E0,6.284779310E-2,1.681926697E-1,9.956287384E0
2.856123452E0,7.721300423E-2,2.783259451E-1,1.006642151E1
2.858121785E0,8.678980917E-2,4.842272997E-1,9.726444244E0
2.860120118E0,1.538274586E-1,6.470330358E-1,9.194931984E0
2.862118452E0,1.394622475E-1,3.118447661E-1,9.419986725E0
2.864116785E0,1.346738487E-1,5.177460909E-1,9.707290649E0
2.866115118E0,2.256535143E-1,7.332242727E-1,9.036913872E0
2.868113452E0,1.921346933E-1,1.777694821E-1,1.108635139E1
2.870111837E0,1.298854351E-1,4.602852762E-1,9.688137054E0
2.872110275E0,8.678980917E-2,5.991489887E-1,9.975440979E0
2.874108764E0,9.157821536E-2,6.278793812E-1,9.127894402E0
2.876107306E0,1.975216344E-2,5.225345492E-1,9.223662376E0
2.878105900E0,1.155202314E-1,7.332242727E-1,9.606734276E0
2.880104546E0,1.586158574E-1,3.549404144E-1,1.001853657E1
2.882103243E0,1.394622475E-1,2.879027426E-1,1.032499504E1
2.884101993E0,1.873462796E-1,4.890156984E-1,9.405621529E0
2.886100743E0,1.777694821E-1,5.464765429E-1,9.640253067E0
2.888099493E0,2.687491477E-1,4.507084787E-1,9.865307808E0
2.890098243E0,1.250970364E-1,1.729810685E-1,9.970652580E0
2.892096993E0,1.298854351E-1,3.357867897E-1,9.903614998E0
2.894095743E0,2.879027426E-1,7.188590765E-1,8.840589523E0
2.896094493E0,2.160767019E-1,6.183025837E-1,8.706514359E0
2.898093243E0,3.262099922E-1,1.298854351E-1,1.163222885E1
2.900091993E0,2.543839216E-1,-2.813187055E-2,9.827000618E0
2.902090535E0,2.543839216E-1,3.262099922E-1,9.290699959E0
2.904089077E0,2.352303118E-1,1.681926697E-1,1.007599831E1
2.906087618E0,3.597288132E-1,3.022679687E-1,9.094375610E0
2.908086160E0,3.501519859E-1,-4.189853091E-3,9.534908295E0
2.910084702E0,3.836708367E-1,-1.574187577E-1,1.099058247E1
2.912083243E0,3.549404144E-1,9.636662155E-2,9.812635422E0
2.914081785E0,4.554968774E-1,3.262099922E-1,9.396044731E0
2.916080327E0,4.171896577E-1,4.028244317E-1,9.127894402E0
2.918078868E0,4.267664552E-1,3.453635871E-1,9.008183479E0
2.920077410E0,3.788824081E-1,1.059434265E-1,1.003769016E1
2.922076004E0,3.884592354E-1,-3.292027488E-2,9.961075783E0
2.924074650E0,4.315548539E-1,-2.196680009E-1,1.073200893E1
2.926073348E0,4.363432527E-1,2.454056777E-2,9.510966301E0
2.928072098E0,4.076128304E-1,1.346738487E-1,9.266757965E0
2.930070900E0,4.698620737E-1,-7.122749835E-2,1.020528507E1
2.932069754E0,4.890156984E-1,7.242459804E-2,9.501389503E0
2.934068608E0,4.459200799E-1,1.442506462E-1,9.238027573E0
2.936067462E0,4.267664552E-1,2.974795699E-1,8.898050308E0
2.938066316E0,3.357867897E-1,5.805939063E-2,8.902838707E0
2.940065171E0,3.262099922E-1,5.327098817E-2,1.086129570E1
2.942063556E0,4.459200799E-1,-8.080431074E-2,1.031541824E1
2.944061941E0,3.309983909E-1,-2.483984232E-1,1.035372543E1
2.946060327E0,4.076128304E-1,3.890577704E-2,1.022922707E1
2.948058712E0,2.879027426E-1,4.369417951E-2,9.616311073E0
2.950057098E0,2.112883031E-1,1.490390599E-1,8.711302757E0
2.952055483E0,1.825578809E-1,9.157821536E-2,1.009036350E1
2.954053868E0,1.250970364E-1,-1.286883354E-1,9.917980194E0
2.956052254E0,-6.643909961E-2,-3.010708690E-1,9.558850288E0
2.958050639E0,5.327098817E-2,-1.478419602E-1,1.050695419E1
2.960049025E0,1.490390599E-1,2.208651006E-1,8.447940826E0
2.962047410E0,1.394622475E-1,4.369417951E-2,9.831789017E0
2.964045796E0,4.848258570E-2,-1.376665942E-2,9.410409927E0
2.966044181E0,-1.855506375E-2,-1.765723825E-1,9.994594574E0
2.968042566E0,6.284779310E-2,7.721300423E-2,9.645041466E0
2.970040952E0,-1.855506375E-2,-9.995792061E-2,1.009515190E1
2.972039337E0,-6.643909961E-2,-2.813187055E-2,1.032020664E1
2.974037723E0,-1.376665942E-2,2.926911712E-1,9.324218750E0
2.976036108E0,-3.770867735E-2,1.538274586E-1,9.846154213E0
2.978034493E0,-9.516951442E-2,-8.080431074E-2,1.017655468E1
2.980032879E0,-1.143231317E-1,-4.249707982E-2,9.755174637E0
2.982031264E0,-7.601590455E-2,3.357867897E-1,9.065644264E0
2.984029650E0,-1.286883354E-1,3.645172119E-1,9.036913872E0
2.986028035E0,-2.723404467E-1,1.873462796E-1,9.678560257E0
2.988026421E0,-1.526303589E-1,-8.080431074E-2,1.058356857E1
2.990024806E0,-2.100912035E-1,-3.154360652E-1,9.731232643E0
2.992023191E0,-1.957259923E-1,-3.058592677E-1,1.058835697E1
2.994021629E0,-7.122749835E-2,1.017535757E-2,9.563638687E0
2.996020066E0,-1.765723825E-1,1.250970364E-1,8.452729225E0
2.998018556E0,-1.334767491E-1,3.693056107E-1,9.103952408E0
3.000017098E0,-1.238999367E-1,2.064998895E-1,8.481459618E0
3.002015639E0,-2.819172442E-1,-5.931634903E-1,1.088044930E1
3.004014181E0,-2.148796022E-1,-4.973953962E-1,1.101931286E1
3.006012723E0,-1.286883354E-1,-9.516951442E-2,9.415198326E0
3.008011264E0,-1.376665942E-2,2.017114908E-1,9.051279068E0
3.010009806E0,-6.165069342E-2,-7.751228213E-1,8.749609947E0
3.012008348E0,-1.047463268E-1,-1.033696532E0,1.273356152E1
3.014006889E0,6.763619930E-2,-6.643909961E-2,9.654618263E0
3.016005431E0,3.411737457E-2,6.278793812E-1,7.284358501E0
3.018003973E0,-5.686229095E-2,6.284779310E-2,8.821435928E0
3.020002254E0,-1.286883354E-1,-1.028908134E0,1.130182934E1
3.022000535E0,-5.207388848E-2,-8.948329091E-1,1.090439129E1
3.023998816E0,-8.978256024E-3,-4.207809567E-1,9.271546364E0
3.025997046E0,-9.995792061E-2,-1.526303589E-1,8.792705536E0
3.027995275E0,-2.100912035E-1,-4.878185987E-1,9.477447510E0
3.029993504E0,-1.669955701E-1,-9.522937536E-1,1.009994030E1
3.031991733E0,-8.559270948E-2,-1.115099430E0,1.078468132E1
3.033989962E0,-4.189853091E-3,-6.793547273E-1,9.587580681E0
3.035988191E0,-5.207388848E-2,-4.686649740E-1,8.687360764E0
3.037986473E0,1.017535757E-2,-8.756792545E-1,1.026753426E1
3.039984806E0,-2.334346622E-2,-1.143829823E0,1.017655468E1
3.041983191E0,-1.574187577E-1,-1.244386315E0,1.041597462E1
3.043981629E0,-8.978256024E-3,-8.469488621E-1,9.333795547E0
3.045980066E0,-5.686229095E-2,-7.463923693E-1,9.261969566E0
3.047978504E0,-9.516951442E-2,-8.565256596E-1,9.357737541E0
3.049976941E0,-9.038111567E-2,-8.756792545E-1,9.654618263E0
3.051975379E0,-9.038111567E-2,-9.522937536E-1,9.750386238E0
3.053973816E0,-1.430535465E-1,-1.143829823E0,1.043991661E1
3.055972254E0,-6.643909961E-2,-9.666589499E-1,1.052610779E1
3.057970691E0,-1.382651478E-1,-6.841431260E-1,9.285911560E0
3.059969129E0,-9.038111567E-2,-8.373720646E-1,9.927556992E0
3.061967566E0,-6.643909961E-2,-6.841431260E-1,9.214085579E0
3.063966004E0,5.386953708E-3,-9.283517003E-1,1.012388229E1
3.065964441E0,-2.813187055E-2,-7.990648150E-1,9.616311073E0
3.067962879E0,-2.334346622E-2,-7.846996188E-1,9.941922188E0
3.069961316E0,-4.189853091E-3,-6.075286865E-1,9.467870712E0
3.071959650E0,-1.855506375E-2,-5.500678420E-1,9.118317604E0
3.073957827E0,-7.601590455E-2,-6.554127336E-1,9.668983459E0
3.075956004E0,-1.095347255E-1,-7.320271730E-1,9.525331497E0
3.077954181E0,-5.686229095E-2,-7.846996188E-1,9.884461403E0
3.079952358E0,-1.526303589E-1,-6.889315248E-1,9.333795547E0
3.081950535E0,-1.669955701E-1,-5.117605925E-1,9.443928719E0
3.083948764E0,-2.579752207E-1,-6.410474777E-1,9.597157478E0
3.085947046E0,-1.286883354E-1,-7.511807680E-1,1.067933655E1
3.087945379E0,-5.686229095E-2,-5.883750916E-1,9.611522675E0
3.089943816E0,-9.038111567E-2,-4.255693555E-1,9.640253067E0
3.091942358E0,-3.770867735E-2,-4.303577542E-1,9.324218750E0
3.093941004E0,-9.995792061E-2,-5.883750916E-1,1.032499504E1
3.095939702E0,-1.478419602E-1,-6.027402878E-1,9.625887871E0
3.097938452E0,-2.813187055E-2,-6.362590790E-1,9.736021042E0
3.099937254E0,7.242459804E-2,-5.309142470E-1,1.034414864E1
3.101936108E0,1.496376097E-2,-1.909375787E-1,9.554061890E0
3.103935014E0,2.454056777E-2,-1.622071713E-1,9.204508781E0
3.105933973E0,8.678980917E-2,-3.441664875E-1,1.062187576E1
3.107932931E0,1.107318252E-1,-3.776853085E-1,9.630676270E0
3.109931889E0,7.721300423E-2,-1.861491799E-1,1.001853657E1
3.111930796E0,6.284779310E-2,1.442506462E-1,8.874108315E0
3.113929233E0,4.369417951E-2,-6.643909961E-2,9.434351921E0
3.115927671E0,-7.601590455E-2,-5.021837950E-1,1.043033981E1
3.117926108E0,-8.080431074E-2,-3.920505345E-1,9.874884605E0
3.119924546E0,5.985504249E-4,-5.686229095E-2,9.740809441E0
3.121922879E0,-8.978256024E-3,-1.478419602E-1,8.898050308E0
3.123921212E0,-3.770867735E-2,-5.692214370E-1,1.027232265E1
3.125919546E0,-6.165069342E-2,-5.740098357E-1,1.022443867E1
3.127917879E0,-5.207388848E-2,-3.968389332E-1,9.731232643E0
3.129916212E0,-7.122749835E-2,-1.957259923E-1,9.467870712E0
3.131914546E0,-1.765723825E-1,-4.878185987E-1,9.194931984E0
3.133912879E0,-1.478419602E-1,-7.751228213E-1,9.381679535E0
3.135911212E0,-1.047463268E-1,-8.852560520E-1,9.846154213E0
3.137909546E0,3.411737457E-2,-1.019331336E0,1.042555141E1
3.139907879E0,-5.686229095E-2,-9.810241461E-1,1.028189945E1
3.141906212E0,-9.995792061E-2,-8.900445104E-1,9.850942612E0
3.143904546E0,-4.728548229E-2,-3.920505345E-1,9.946710587E0
3.145902879E0,-4.249707982E-2,-7.122749835E-2,8.443152428E0
3.147901212E0,-2.813187055E-2,-3.681085110E-1,9.721655846E0
3.149899546E0,-9.516951442E-2,-4.495113790E-1,9.731232643E0
3.151897879E0,-1.143231317E-1,-1.009754539E0,9.635464668E0
3.153896212E0,-6.165069342E-2,-1.110311031E0,1.043991661E1
3.155894546E0,2.454056777E-2,-5.787982345E-1,9.827000618E0
3.157892879E0,1.011550203E-1,-2.334346622E-2,8.759186745E0
3.159891212E0,7.721300423E-2,-9.038111567E-2,9.458293915E0
3.161889546E0,-4.728548229E-2,-4.447229803E-1,9.803058624E0
3.163887879E0,-7.122749835E-2,-5.213374496E-1,1.054526138E1
3.165886212E0,1.017535757E-2,5.386953708E-3,1.021486187E1
3.167884546E0,3.411737457E-2,1.777694821E-1,9.271546364E0
3.169882879E0,1.203086376E-1,-5.117605925E-1,9.755174637E0
3.171881212E0,7.242459804E-2,-6.075286865E-1,1.031062984E1
3.173879546E0,7.242459804E-2,-4.734533727E-1,9.606734276E0
3.175877879E0,8.200141042E-2,-7.122749835E-2,9.166201591E0
3.177876212E0,1.921346933E-1,-4.249707982E-2,9.386467934E0
3.179874546E0,1.777694821E-1,-1.047463268E-1,9.889249802E0
3.181872879E0,9.157821536E-2,1.586158574E-1,9.769539833E0
3.183871160E0,-3.770867735E-2,2.831143439E-1,9.319430351E0
3.185869129E0,-1.143231317E-1,1.825578809E-1,9.807847023E0
3.187867098E0,-1.669955701E-1,1.825578809E-1,9.970652580E0
3.189865066E0,-2.100912035E-1,-4.303577542E-1,1.017176628E1
3.191863035E0,-3.292027488E-2,-3.345896900E-1,1.006642151E1
3.193861004E0,-2.100912035E-1,-1.478419602E-1,9.587580681E0
3.195859025E0,-2.771288455E-1,5.327098817E-2,9.324218750E0
3.197857098E0,-2.388216257E-1,1.975216344E-2,9.257181168E0
3.199855223E0,-2.723404467E-1,5.805939063E-2,9.290699959E0
3.201853400E0,-2.148796022E-1,1.681926697E-1,9.448717117E0
3.203851629E0,-1.334767491E-1,4.848258570E-2,9.688137054E0
3.205849910E0,-1.334767491E-1,5.985504249E-4,1.043512821E1
3.207848243E0,-3.292027488E-2,-1.095347255E-1,1.066018295E1
3.209846629E0,-8.559270948E-2,1.729810685E-1,1.019570827E1
3.211845066E0,-1.382651478E-1,5.512649417E-1,9.305065155E0
3.213843556E0,-8.080431074E-2,3.788824081E-1,9.606734276E0
3.215842046E0,-4.728548229E-2,2.160767019E-1,9.927556992E0
3.217840535E0,-1.382651478E-1,3.693056107E-1,9.664195061E0
3.219839025E0,-9.038111567E-2,4.267664552E-1,8.921992302E0
3.221837514E0,-1.334767491E-1,1.155202314E-1,1.004247856E1
3.223836004E0,-9.995792061E-2,7.721300423E-2,9.779116631E0
3.225834493E0,-4.249707982E-2,1.490390599E-1,9.343372345E0
3.227832983E0,-3.292027488E-2,-2.813187055E-2,9.764751434E0
3.229831473E0,-4.189853091E-3,-1.095347255E-1,9.568427086E0
3.231829754E0,2.454056777E-2,-1.191115379E-1,9.515754700E0
3.233827983E0,5.386953708E-3,-2.005143911E-1,1.005684471E1
3.235826212E0,5.985504249E-4,-1.286883354E-1,9.913191795E0
3.237824441E0,4.369417951E-2,-6.165069342E-2,9.482235909E0
3.239822671E0,-4.189853091E-3,-2.292448133E-1,9.582792282E0
3.241820900E0,6.763619930E-2,-4.782418013E-1,1.027711105E1
3.243819129E0,9.636662155E-2,-2.579752207E-1,1.008078671E1
3.245817358E0,1.490390599E-1,9.157821536E-2,9.151836395E0
3.247815587E0,1.298854351E-1,1.681926697E-1,8.840589523E0
3.249813816E0,2.454056777E-2,-2.436100245E-1,9.554061890E0
3.251812046E0,-5.686229095E-2,-4.878185987E-1,1.046385860E1
3.253810275E0,-9.516951442E-2,-3.202244639E-1,9.831789017E0
3.255808504E0,-5.207388848E-2,-2.531868219E-1,9.850942612E0
3.257806733E0,-1.191115379E-1,1.975216344E-2,9.247604370E0
3.259804962E0,-1.238999367E-1,-2.148796022E-1,9.803058624E0
3.261803191E0,-1.909375787E-1,-4.495113790E-1,1.032499504E1
3.263801421E0,-8.559270948E-2,-4.064157307E-1,1.007120991E1
3.265799650E0,-9.038111567E-2,5.985504249E-4,9.132682800E0
3.267797879E0,-2.436100245E-1,-2.819172442E-1,9.472659111E0
3.269796160E0,-2.483984232E-1,-6.123170853E-1,1.056920338E1
3.271794493E0,-2.340332121E-1,-3.441664875E-1,9.961075783E0
3.273792879E0,-1.813607812E-1,-1.478419602E-1,9.487024307E0
3.275791316E0,-1.813607812E-1,-2.388216257E-1,9.913191795E0
3.277789806E0,-2.627636492E-1,-2.244564146E-1,9.764751434E0
3.279788348E0,-3.106476665E-1,-2.819172442E-1,9.443928719E0
3.281786941E0,-2.531868219E-1,-2.531868219E-1,9.980229378E0
3.283785535E0,-2.531868219E-1,-4.189853091E-3,9.080010414E0
3.285784129E0,-2.148796022E-1,1.496376097E-2,9.664195061E0
3.287782723E0,-2.244564146E-1,-1.376665942E-2,1.017655468E1
3.289781316E0,-2.819172442E-1,1.442506462E-1,9.625887871E0
3.291779754E0,-2.436100245E-1,1.203086376E-1,9.932345390E0
3.293777827E0,-2.771288455E-1,2.256535143E-1,9.630676270E0
3.295775900E0,-2.196680009E-1,2.879027426E-1,9.568427086E0
3.297773973E0,-2.483984232E-1,1.777694821E-1,9.874884605E0
3.299772046E0,-1.574187577E-1,2.932897024E-2,1.027711105E1
3.301770118E0,-8.080431074E-2,3.022679687E-1,9.793481827E0
3.303768191E0,-1.286883354E-1,6.135141850E-1,9.070432663E0
3.305766264E0,-1.478419602E-1,4.746504724E-1,9.180566788E0
3.307764337E0,-1.334767491E-1,2.687491477E-1,9.894038200E0
3.309762410E0,-3.770867735E-2,2.064998895E-1,9.740809441E0
3.311760535E0,-4.249707982E-2,6.284779310E-2,1.003290176E1
3.313758712E0,5.805939063E-2,9.636662155E-2,9.750386238E0
3.315756889E0,1.059434265E-1,3.022679687E-1,9.554061890E0
3.317755066E0,1.155202314E-1,3.932476342E-1,9.238027573E0
3.319753243E0,1.059434265E-1,2.352303118E-1,9.649829865E0
3.321751421E0,1.825578809E-1,6.284779310E-2,1.006642151E1
3.323749598E0,1.777694821E-1,1.729810685E-1,1.021486187E1
3.325747775E0,1.681926697E-1,2.926911712E-1,9.645041466E0
3.327745743E0,1.298854351E-1,1.825578809E-1,9.879673004E0
3.329743712E0,1.107318252E-1,1.017535757E-2,1.020049667E1
3.331741681E0,1.107318252E-1,2.783259451E-1,9.649829865E0
3.333739650E0,9.157821536E-2,4.650736749E-1,8.687360764E0
3.335737618E0,6.284779310E-2,1.969230920E-1,9.194931984E0
3.337735587E0,8.200141042E-2,-8.559270948E-2,1.015261269E1
3.339733608E0,1.250970364E-1,-6.165069342E-2,9.889249802E0
3.341731629E0,1.969230920E-1,7.242459804E-2,9.798270226E0
3.343729650E0,1.873462796E-1,2.591723204E-1,9.702502251E0
3.345727671E0,1.490390599E-1,2.926911712E-1,9.372102737E0
3.347725743E0,1.681926697E-1,5.386953708E-3,9.994594574E0
3.349723868E0,1.921346933E-1,-1.574187577E-1,1.000417137E1
3.351722046E0,1.059434265E-1,-8.978256024E-3,9.549273491E0
3.353720223E0,1.681926697E-1,-1.382651478E-1,9.443928719E0
3.355718400E0,1.634042710E-1,-2.962824702E-1,1.002811337E1
3.357716577E0,1.825578809E-1,-2.196680009E-1,9.879673004E0
3.359714754E0,1.921346933E-1,-1.095347255E-1,9.798270226E0
3.361712983E0,2.208651006E-1,-7.122749835E-2,9.649829865E0
3.363711212E0,1.921346933E-1,-1.095347255E-1,9.678560257E0
3.365709441E0,1.107318252E-1,-1.286883354E-1,9.712079048E0
3.367707671E0,2.017114908E-1,-1.765723825E-1,9.999382973E0
3.369705900E0,1.777694821E-1,-1.191115379E-1,9.836577415E0
3.371704129E0,1.442506462E-1,5.386953708E-3,9.740809441E0
3.373702358E0,3.411737457E-2,-3.770867735E-2,9.520543098E0
3.375700587E0,-1.855506375E-2,-3.292027488E-2,9.645041466E0
3.377698504E0,1.017535757E-2,-3.770867735E-2,9.855731010E0
3.379696421E0,4.848258570E-2,1.107318252E-1,9.357737541E0
3.381694337E0,1.203086376E-1,-5.686229095E-2,9.635464668E0
3.383692254E0,8.678980917E-2,-1.382651478E-1,9.846154213E0
3.385690171E0,1.155202314E-1,-1.669955701E-1,9.621099472E0
3.387688087E0,2.454056777E-2,-2.914940715E-1,9.870096207E0
3.389686056E0,8.678980917E-2,-1.909375787E-1,9.769539833E0
3.391684077E0,6.284779310E-2,-1.047463268E-1,9.496601105E0
3.393682150E0,1.011550203E-1,-1.861491799E-1,9.855731010E0
3.395680275E0,-4.189853091E-3,-1.574187577E-1,9.630676270E0
3.397678452E0,-1.376665942E-2,-3.585317135E-1,9.884461403E0
3.399676629E0,1.017535757E-2,-3.489548862E-1,9.922768593E0
3.401674806E0,5.805939063E-2,-2.771288455E-1,9.702502251E0
3.403672983E0,5.327098817E-2,-1.861491799E-1,9.472659111E0
3.405671160E0,5.985504249E-4,-3.058592677E-1,9.501389503E0
3.407669337E0,-2.813187055E-2,-4.926069975E-1,9.946710587E0
3.409667514E0,1.017535757E-2,-4.495113790E-1,9.961075783E0
3.411665691E0,4.369417951E-2,-2.914940715E-1,9.640253067E0
3.413663868E0,5.805939063E-2,-3.345896900E-1,9.549273491E0
3.415662046E0,6.763619930E-2,-3.585317135E-1,1.004247856E1
3.417660223E0,5.985504249E-4,-3.872621357E-1,9.817423820E0
3.419658400E0,5.386953708E-3,-2.244564146E-1,9.994594574E0
3.421656577E0,8.678980917E-2,-8.080431074E-2,9.467870712E0
3.423654754E0,7.721300423E-2,-6.643909961E-2,9.836577415E0
3.425652931E0,3.411737457E-2,-2.100912035E-1,1.003290176E1
3.427651108E0,-2.334346622E-2,-9.516951442E-2,1.006642151E1
3.429649285E0,-5.207388848E-2,1.298854351E-1,9.343372345E0
3.431647462E0,-9.995792061E-2,4.369417951E-2,9.443928719E0
3.433645639E0,-1.430535465E-1,-1.238999367E-1,9.846154213E0
3.435643816E0,-1.143231317E-1,-1.191115379E-1,9.759963036E0
3.437641993E0,-1.574187577E-1,-8.978256024E-3,9.386467934E0
3.439640171E0,-1.191115379E-1,3.890577704E-2,9.391256332E0
3.441638348E0,-9.038111567E-2,-4.189853091E-3,9.487024307E0
3.443636525E0,-1.286883354E-1,-1.813607812E-1,9.985017776E0
3.445634702E0,-1.574187577E-1,-3.489548862E-1,1.026274586E1
3.447632879E0,-1.622071713E-1,-1.957259923E-1,9.989806175E0
3.449631056E0,-6.165069342E-2,9.636662155E-2,9.352949142E0
3.451629233E0,3.890577704E-2,2.448071241E-1,8.974664688E0
3.453627254E0,-4.189853091E-3,-2.334346622E-2,9.645041466E0
3.455625275E0,-1.095347255E-1,-2.483984232E-1,1.015261269E1
3.457623296E0,-1.765723825E-1,-2.148796022E-1,1.033936024E1
3.459621316E0,-1.286883354E-1,5.386953708E-3,9.836577415E0
3.461619337E0,-1.622071713E-1,1.394622475E-1,9.645041466E0
3.463617358E0,-1.574187577E-1,2.256535143E-1,9.563638687E0
3.465615379E0,-1.382651478E-1,2.639607489E-1,9.439140320E0
3.467613400E0,-1.909375787E-1,6.763619930E-2,9.472659111E0
3.469611421E0,-1.861491799E-1,2.454056777E-2,1.004247856E1
3.471609441E0,-2.436100245E-1,2.400187254E-1,9.764751434E0
3.473607462E0,-1.957259923E-1,3.788824081E-1,9.822212219E0
3.475605483E0,-1.430535465E-1,3.884592354E-1,9.702502251E0
3.477603504E0,-9.516951442E-2,3.453635871E-1,9.759963036E0
3.479601525E0,-1.143231317E-1,3.309983909E-1,9.587580681E0
3.481599546E0,-1.478419602E-1,2.064998895E-1,9.956287384E0
3.483597566E0,-5.686229095E-2,2.112883031E-1,1.021486187E1
3.485595587E0,-3.770867735E-2,3.549404144E-1,1.002332497E1
3.487593608E0,-2.334346622E-2,-3.058592677E-1,9.803058624E0
3.489591629E0,-3.770867735E-2,-1.286883354E-1,9.391256332E0
3.491589702E0,-6.165069342E-2,-2.813187055E-2,9.362525940E0
3.493587827E0,-4.189853091E-3,1.155202314E-1,9.271546364E0
3.495585952E0,4.369417951E-2,7.242459804E-2,9.645041466E0
3.497584077E0,3.411737457E-2,2.831143439E-1,9.688137054E0
3.499582202E0,3.411737457E-2,3.357867897E-1,9.740809441E0
3.501580327E0,1.011550203E-1,4.315548539E-1,9.831789017E0
3.503578504E0,1.298854351E-1,6.183025837E-1,9.827000618E0
3.505576733E0,1.155202314E-1,7.906851172E-1,9.558850288E0
3.507575014E0,8.200141042E-2,6.518214345E-1,9.673771858E0
3.509573348E0,1.059434265E-1,5.081692934E-1,1.004247856E1
3.511571733E0,1.250970364E-1,5.129576921E-1,9.961075783E0
3.513570171E0,6.284779310E-2,6.230909824E-1,9.439140320E0
3.515568608E0,4.848258570E-2,6.135141850E-1,9.745597839E0
3.517567046E0,1.496376097E-2,6.613982320E-1,9.707290649E0
3.519565483E0,4.848258570E-2,6.661866307E-1,9.357737541E0
3.521563921E0,3.890577704E-2,4.746504724E-1,9.611522675E0
3.523562358E0,1.496376097E-2,1.921346933E-1,1.012388229E1
3.525560796E0,-1.855506375E-2,1.634042710E-1,9.989806175E0
3.527559025E0,2.454056777E-2,1.969230920E-1,9.668983459E0
3.529557254E0,-3.770867735E-2,2.783259451E-1,9.692925453E0
3.531555483E0,-1.526303589E-1,3.884592354E-1,9.257181168E0
3.533553712E0,-8.559270948E-2,1.681926697E-1,9.645041466E0
3.535551941E0,-6.643909961E-2,-8.978256024E-3,1.044470501E1
3.537550171E0,-1.334767491E-1,1.059434265E-1,9.812635422E0
3.539548400E0,-9.038111567E-2,3.405751884E-1,9.688137054E0
3.541546629E0,-2.813187055E-2,5.033808947E-1,9.635464668E0
3.543544702E0,1.017535757E-2,5.512649417E-1,9.372102737E0
3.545542775E0,-4.189853091E-3,3.597288132E-1,9.592369080E0
3.547540796E0,7.721300423E-2,1.921346933E-1,9.874884605E0
3.549538764E0,6.284779310E-2,1.586158574E-1,9.855731010E0
3.551536681E0,1.975216344E-2,2.352303118E-1,9.463082314E0
3.553534598E0,4.369417951E-2,2.304419130E-1,9.798270226E0
3.555532514E0,7.242459804E-2,2.974795699E-1,9.740809441E0
3.557530431E0,7.721300423E-2,3.501519859E-1,9.635464668E0
3.559528348E0,9.157821536E-2,2.974795699E-1,9.683348656E0
3.561526316E0,-4.189853091E-3,2.208651006E-1,9.879673004E0
3.563524337E0,2.932897024E-2,1.155202314E-1,9.946710587E0
3.565522410E0,9.157821536E-2,2.208651006E-1,1.005684471E1
3.567520535E0,9.157821536E-2,4.938040972E-1,9.333795547E0
3.569518712E0,3.890577704E-2,4.267664552E-1,9.530119896E0
3.571516941E0,4.369417951E-2,3.070563674E-1,1.009515190E1
3.573515223E0,4.369417951E-2,2.735375464E-1,9.903614998E0
3.575513556E0,4.848258570E-2,2.639607489E-1,9.913191795E0
3.577511941E0,3.890577704E-2,1.969230920E-1,9.616311073E0
3.579510379E0,-3.770867735E-2,1.490390599E-1,9.539696693E0
3.581508816E0,-3.292027488E-2,1.011550203E-1,9.860519409E0
3.583507254E0,-1.376665942E-2,2.208651006E-1,9.530119896E0
3.585505691E0,2.932897024E-2,2.495955229E-1,9.506177902E0
3.587504129E0,1.496376097E-2,5.327098817E-2,9.664195061E0
3.589502358E0,5.327098817E-2,-1.095347255E-1,1.015740108E1
3.591500431E0,7.242459804E-2,9.636662155E-2,9.985017776E0
3.593498504E0,5.805939063E-2,3.118447661E-1,9.530119896E0
3.595496577E0,-2.334346622E-2,3.549404144E-1,9.271546364E0
3.597494650E0,-8.559270948E-2,1.490390599E-1,9.544485092E0
3.599492723E0,-4.249707982E-2,-2.334346622E-2,9.999382973E0
3.601490796E0,-1.382651478E-1,1.442506462E-1,9.807847023E0
3.603488868E0,-2.244564146E-1,2.495955229E-1,9.568427086E0
3.605486941E0,-1.382651478E-1,2.064998895E-1,9.865307808E0
3.607485014E0,-1.286883354E-1,3.118447661E-1,1.002332497E1
3.609483087E0,-2.334346622E-2,3.118447661E-1,9.625887871E0
3.611481160E0,5.386953708E-3,3.070563674E-1,9.922768593E0
3.613479285E0,-2.813187055E-2,4.985924959E-1,9.218873978E0
3.615477462E0,-1.095347255E-1,4.315548539E-1,9.238027573E0
3.617475691E0,-9.038111567E-2,1.155202314E-1,1.001853657E1
3.619473973E0,-4.728548229E-2,-1.376665942E-2,1.040160942E1
3.621472306E0,-3.292027488E-2,2.639607489E-1,9.750386238E0
3.623470691E0,-3.770867735E-2,5.512649417E-1,9.137471199E0
3.625469077E0,-6.643909961E-2,2.256535143E-1,9.913191795E0
3.627467514E0,1.975216344E-2,2.160767019E-1,1.038245583E1
3.629465952E0,5.985504249E-4,4.507084787E-1,9.803058624E0
3.631464389E0,2.454056777E-2,6.135141850E-1,9.261969566E0
3.633462827E0,2.454056777E-2,4.507084787E-1,9.827000618E0
3.635461264E0,7.721300423E-2,4.554968774E-1,9.913191795E0
3.637459702E0,1.250970364E-1,5.656301379E-1,9.510966301E0
3.639457931E0,1.825578809E-1,5.033808947E-1,9.640253067E0
3.641455952E0,1.777694821E-1,4.794389009E-1,9.750386238E0
3.643453973E0,1.346738487E-1,5.991489887E-1,9.544485092E0
3.645451993E0,1.059434265E-1,5.943605900E-1,9.525331497E0
3.647450014E0,1.107318252E-1,6.422445774E-1,9.645041466E0
3.649448035E0,1.921346933E-1,6.326677799E-1,9.793481827E0
3.651446056E0,1.394622475E-1,7.380126715E-1,1.000895977E1
3.653444077E0,1.394622475E-1,8.289923668E-1,9.582792282E0
3.655442098E0,1.250970364E-1,7.380126715E-1,9.874884605E0
3.657440118E0,9.157821536E-2,6.613982320E-1,1.011430550E1
3.659438139E0,2.454056777E-2,7.428010702E-1,9.750386238E0
3.661436160E0,-1.376665942E-2,7.954735160E-1,9.707290649E0
3.663434233E0,-3.292027488E-2,7.811083198E-1,9.573215485E0
3.665432358E0,2.454056777E-2,6.805518270E-1,9.736021042E0
3.667430535E0,1.496376097E-2,6.278793812E-1,9.692925453E0
3.669428764E0,-9.516951442E-2,6.566098332E-1,9.324218750E0
3.671427046E0,-9.516951442E-2,5.799953341E-1,9.410409927E0
3.673425379E0,-9.038111567E-2,5.081692934E-1,9.740809441E0
3.675423764E0,-4.728548229E-2,3.836708367E-1,1.002811337E1
3.677422202E0,1.975216344E-2,3.357867897E-1,1.007599831E1
3.679420639E0,-4.189853091E-3,4.124012291E-1,9.563638687E0
3.681419077E0,-2.813187055E-2,4.363432527E-1,9.640253067E0
3.683417514E0,-3.292027488E-2,4.985924959E-1,9.285911560E0
3.685415952E0,6.284779310E-2,3.453635871E-1,9.673771858E0
3.687414389E0,-4.189853091E-3,2.448071241E-1,1.013345909E1
3.689412827E0,-1.855506375E-2,4.219780564E-1,9.989806175E0
3.691411264E0,2.932897024E-2,4.507084787E-1,9.295488358E0
3.693409598E0,1.975216344E-2,3.453635871E-1,9.941922188E0
3.695407827E0,3.411737457E-2,4.842272997E-1,9.822212219E0
3.697406004E0,-4.189853091E-3,5.129576921E-1,9.539696693E0
3.699404129E0,-6.165069342E-2,4.602852762E-1,9.908403397E0
3.701402254E0,-8.080431074E-2,4.842272997E-1,9.788693428E0
3.703400379E0,-1.143231317E-1,4.411316514E-1,9.894038200E0
3.705398504E0,-5.207388848E-2,4.267664552E-1,9.860519409E0
3.707396629E0,3.890577704E-2,6.230909824E-1,9.889249802E0
3.709394754E0,-2.813187055E-2,7.284358740E-1,9.300276756E0
3.711392879E0,-7.122749835E-2,5.991489887E-1,9.482235909E0
3.713391004E0,-8.559270948E-2,3.836708367E-1,9.764751434E0
3.715389129E0,-2.334346622E-2,2.879027426E-1,1.000895977E1
3.717387254E0,-8.080431074E-2,4.554968774E-1,9.736021042E0
3.719385379E0,-1.376665942E-2,5.225345492E-1,9.702502251E0
3.721383504E0,-1.191115379E-1,3.166331649E-1,9.927556992E0
3.723381629E0,-9.995792061E-2,3.357867897E-1,1.064102936E1
3.725379806E0,-6.643909961E-2,9.199720025E-1,9.123106003E0
3.727378035E0,-7.122749835E-2,9.391255975E-1,8.677783966E0
3.729376316E0,-1.286883354E-1,4.794389009E-1,9.721655846E0
3.731374598E0,-6.643909961E-2,2.783259451E-1,1.016697788E1
3.733372879E0,5.386953708E-3,1.777694821E-1,1.054526138E1
3.735371160E0,-3.292027488E-2,4.746504724E-1,9.922768593E0
3.737369441E0,3.890577704E-2,8.337807655E-1,9.372102737E0
3.739367723E0,1.496376097E-2,8.481459618E-1,8.826224327E0
3.741366004E0,6.763619930E-2,5.464765429E-1,9.434351921E0
3.743364285E0,4.369417951E-2,3.022679687E-1,9.736021042E0
3.745362566E0,1.011550203E-1,1.442506462E-1,9.903614998E0
3.747360848E0,1.155202314E-1,1.298854351E-1,1.023401546E1
3.749359129E0,1.681926697E-1,6.284779310E-2,9.903614998E0
3.751357462E0,2.543839216E-1,1.107318252E-1,1.044949341E1
3.753355848E0,5.327098817E-2,3.932476342E-1,9.558850288E0
3.755354285E0,-5.207388848E-2,5.273229480E-1,8.864531517E0
3.757352775E0,-3.292027488E-2,3.309983909E-1,9.199720383E0
3.759351264E0,-7.601590455E-2,2.160767019E-1,9.611522675E0
3.761349754E0,-1.855506375E-2,2.639607489E-1,9.726444244E0
3.763348243E0,2.454056777E-2,1.490390599E-1,9.554061890E0
3.765346733E0,1.777694821E-1,9.636662155E-2,1.092833328E1
3.767345223E0,2.543839216E-1,3.884592354E-1,9.865307808E0
3.769343712E0,2.208651006E-1,4.411316514E-1,9.506177902E0
3.771342202E0,1.346738487E-1,3.693056107E-1,9.726444244E0
3.773340691E0,1.250970364E-1,5.081692934E-1,9.381679535E0
3.775339181E0,1.975216344E-2,4.363432527E-1,9.434351921E0
3.777337671E0,-4.189853091E-3,3.645172119E-1,9.975440979E0
3.779336160E0,-8.978256024E-3,4.124012291E-1,9.702502251E0
3.781334650E0,-2.334346622E-2,3.405751884E-1,1.042076302E1
3.783333139E0,-9.516951442E-2,5.225345492E-1,9.822212219E0
3.785331629E0,-3.770867735E-2,6.709750295E-1,9.405621529E0
3.787330118E0,-5.686229095E-2,4.842272997E-1,9.755174637E0
3.789328608E0,-5.686229095E-2,4.938040972E-1,9.515754700E0
3.791327098E0,-4.249707982E-2,6.997054219E-1,9.008183479E0
3.793325483E0,-2.334346622E-2,4.890156984E-1,9.683348656E0
3.795323868E0,-4.249707982E-2,3.405751884E-1,1.021486187E1
3.797322150E0,-5.686229095E-2,4.602852762E-1,1.002332497E1
3.799320327E0,1.496376097E-2,5.656301379E-1,9.980229378E0
3.801318452E0,5.805939063E-2,3.549404144E-1,1.007599831E1
3.803316577E0,-9.516951442E-2,3.405751884E-1,1.000417137E1
3.805314702E0,-8.080431074E-2,7.284358740E-1,9.099164009E0
3.807312827E0,-1.526303589E-1,8.242039084E-1,8.802282333E0
3.809310952E0,-2.005143911E-1,7.428010702E-1,9.386467934E0
3.811309077E0,-5.686229095E-2,5.895721912E-1,9.716867447E0
3.813307202E0,-7.601590455E-2,3.309983909E-1,1.017176628E1
3.815305327E0,-7.122749835E-2,2.017114908E-1,1.085171890E1
3.817303452E0,2.932897024E-2,3.549404144E-1,1.023401546E1
3.819301577E0,-7.122749835E-2,7.140706778E-1,9.549273491E0
3.821299754E0,-2.340332121E-1,9.774328470E-1,8.993818283E0
3.823297983E0,-2.723404467E-1,5.225345492E-1,8.744821548E0
3.825296264E0,-2.579752207E-1,1.634042710E-1,1.054047298E1
3.827294598E0,-2.962824702E-1,5.081692934E-1,9.228450775E0
3.829292983E0,-3.202244639E-1,4.650736749E-1,9.271546364E0
3.831291421E0,-1.334767491E-1,2.831143439E-1,1.021965027E1
3.833289910E0,-9.038111567E-2,4.602852762E-1,1.009036350E1
3.835288452E0,-1.095347255E-1,5.368997455E-1,9.558850288E0
3.837287046E0,-9.995792061E-2,3.166331649E-1,1.034893703E1
3.839285691E0,-1.622071713E-1,4.746504724E-1,9.817423820E0
3.841284337E0,-2.148796022E-1,8.146271110E-1,9.060855865E0
3.843282983E0,-1.669955701E-1,5.416881442E-1,9.539696693E0
3.845281629E0,-7.601590455E-2,3.262099922E-1,9.788693428E0
3.847280223E0,-1.526303589E-1,3.405751884E-1,9.324218750E0
3.849278608E0,-1.095347255E-1,-9.038111567E-2,9.601945877E0
3.851276993E0,1.496376097E-2,-3.585317135E-1,1.168490124E1
3.853275379E0,1.975216344E-2,4.602852762E-1,9.621099472E0
3.855273712E0,-4.728548229E-2,5.895721912E-1,9.060855865E0
3.857271993E0,6.763619930E-2,1.921346933E-1,9.750386238E0
3.859270275E0,7.242459804E-2,1.681926697E-1,9.491812706E0
3.861268556E0,-8.978256024E-3,1.490390599E-1,9.798270226E0
3.863266837E0,-9.995792061E-2,4.219780564E-1,9.295488358E0
3.865265118E0,-4.249707982E-2,2.304419130E-1,9.932345390E0
3.867263400E0,-5.207388848E-2,1.825578809E-1,1.027232265E1
3.869261681E0,-7.601590455E-2,3.357867897E-1,9.621099472E0
3.871259962E0,-8.080431074E-2,4.794389009E-1,9.285911560E0
3.873258243E0,-6.165069342E-2,1.017535757E-2,9.309853554E0
3.875256525E0,1.975216344E-2,-3.585317135E-1,1.080383492E1
3.877254806E0,1.975216344E-2,3.070563674E-1,9.276334763E0
3.879253139E0,-1.376665942E-2,6.183025837E-1,8.716091156E0
3.881251525E0,4.848258570E-2,1.442506462E-1,9.544485092E0
3.883249962E0,1.538274586E-1,1.250970364E-1,9.961075783E0
3.885248452E0,9.157821536E-2,2.448071241E-1,9.874884605E0
3.887246993E0,2.454056777E-2,1.969230920E-1,1.041118622E1
3.889245587E0,4.369417951E-2,4.698620737E-1,9.750386238E0
3.891244233E0,1.011550203E-1,3.836708367E-1,9.424775124E0
3.893242931E0,7.242459804E-2,-5.686229095E-2,1.052131939E1
3.895241629E0,1.017535757E-2,-3.393780887E-1,1.103367901E1
3.897240327E0,8.678980917E-2,8.672995567E-1,9.443928719E0
3.899239025E0,5.386953708E-3,1.470638394E0,6.676231384E0
3.901237723E0,5.985504249E-4,5.081692934E-1,9.271546364E0
3.903236421E0,3.411737457E-2,-1.717839688E-1,1.091396809E1
3.905235118E0,1.203086376E-1,1.634042710E-1,1.049258900E1
3.907233816E0,1.634042710E-1,5.321113467E-1,9.544485092E0
3.909232514E0,1.777694821E-1,3.836708367E-1,9.745597839E0
3.911231212E0,6.284779310E-2,2.064998895E-1,1.028668785E1
3.913229650E0,1.490390599E-1,5.512649417E-1,9.889249802E0
3.915227723E0,3.309983909E-1,6.518214345E-1,9.151836395E0
3.917225796E0,2.352303118E-1,2.448071241E-1,9.937133789E0
3.919223868E0,1.873462796E-1,1.921346933E-1,1.004726696E1
3.921221941E0,1.442506462E-1,3.262099922E-1,9.357737541E0
3.923220014E0,1.873462796E-1,3.884592354E-1,9.472659111E0
3.925218087E0,1.490390599E-1,3.214215636E-1,9.649829865E0
3.927216212E0,1.059434265E-1,3.597288132E-1,9.228450775E0
3.929214389E0,5.805939063E-2,2.352303118E-1,9.836577415E0
3.931212618E0,6.284779310E-2,1.394622475E-1,1.009515190E1
3.933210900E0,-1.376665942E-2,5.386953708E-3,9.774328232E0
3.935209233E0,1.017535757E-2,8.200141042E-2,9.917980194E0
3.937207618E0,5.327098817E-2,2.400187254E-1,9.534908295E0
3.939206056E0,1.155202314E-1,8.678980917E-2,9.783905029E0
3.941204546E0,1.729810685E-1,1.681926697E-1,9.850942612E0
3.943203087E0,1.538274586E-1,3.214215636E-1,9.419986725E0
3.945201629E0,9.157821536E-2,1.586158574E-1,9.487024307E0
3.947200171E0,1.442506462E-1,4.848258570E-2,1.027711105E1
3.949198712E0,1.538274586E-1,1.777694821E-1,9.554061890E0
3.951197254E0,9.636662155E-2,4.459200799E-1,8.993818283E0
3.953195796E0,1.059434265E-1,3.309983909E-1,9.836577415E0
3.955194181E0,1.681926697E-1,4.848258570E-2,1.037287903E1
3.957192566E0,1.490390599E-1,1.681926697E-1,1.021007347E1
3.959190952E0,1.634042710E-1,3.309983909E-1,9.554061890E0
3.961189337E0,1.250970364E-1,9.636662155E-2,9.534908295E0
3.963187566E0,1.017535757E-2,1.203086376E-1,1.019570827E1
3.965185587E0,5.386953708E-3,5.177460909E-1,8.869319916E0
3.967183608E0,-7.601590455E-2,1.873462796E-1,9.898826599E0
3.969181629E0,4.369417951E-2,2.639607489E-1,1.007599831E1
3.971179650E0,2.932897024E-2,2.974795699E-1,9.166201591E0
3.973177671E0,8.678980917E-2,-1.143231317E-1,1.022443867E1
3.975175743E0,6.284779310E-2,-1.574187577E-1,9.999382973E0
3.977173868E0,8.678980917E-2,1.155202314E-1,9.194931984E0
3.979172098E0,1.298854351E-1,-5.207388848E-2,9.233239174E0
3.981170431E0,2.017114908E-1,-5.686229095E-2,1.005205631E1
3.983168868E0,1.777694821E-1,3.309983909E-1,9.601945877E0
3.985167410E0,1.346738487E-1,2.352303118E-1,9.568427086E0
3.987166056E0,1.298854351E-1,1.490390599E-1,1.007120991E1
3.989164806E0,2.208651006E-1,8.200141042E-2,9.812635422E0
3.991163660E0,1.729810685E-1,8.200141042E-2,9.922768593E0
3.993162566E0,1.681926697E-1,3.262099922E-1,9.290699959E0
3.995161525E0,1.873462796E-1,8.200141042E-2,9.755174637E0
3.997160483E0,1.825578809E-1,-5.686229095E-2,1.027711105E1
3.999159441E0,2.639607489E-1,3.740940094E-1,9.549273491E0
4.001158400E0,1.873462796E-1,7.571662664E-1,8.615534782E0
4.003157150E0,2.400187254E-1,3.932476342E-1,9.367314339E0
4.005155587E0,3.357867897E-1,-1.957259923E-1,1.134013653E1
4.007153868E0,2.974795699E-1,-1.143231317E-1,1.019570827E1
4.009152098E0,2.974795699E-1,1.873462796E-1,9.980229378E0
4.011150327E0,2.926911712E-1,4.459200799E-1,9.362525940E0
4.013148556E0,2.448071241E-1,2.064998895E-1,8.950722694E0
4.015146785E0,2.495955229E-1,-9.995792061E-2,1.007599831E1
4.017145014E0,2.735375464E-1,8.678980917E-2,9.913191795E0
4.019143243E0,3.166331649E-1,7.242459804E-2,1.010472870E1
4.021141525E0,3.501519859E-1,6.284779310E-2,9.913191795E0
4.023139858E0,2.687491477E-1,1.777694821E-1,9.415198326E0
4.025138243E0,3.501519859E-1,1.203086376E-1,9.060855865E0
4.027136681E0,2.831143439E-1,-1.478419602E-1,9.372102737E0
4.029135171E0,3.262099922E-1,-3.489548862E-1,1.025795746E1
4.031133712E0,3.932476342E-1,-9.516951442E-2,9.630676270E0
4.033132254E0,3.980360329E-1,-3.393780887E-1,9.707290649E0
4.035130796E0,3.980360329E-1,-5.165489912E-1,1.032020664E1
4.037129337E0,3.693056107E-1,-4.112041295E-1,9.822212219E0
4.039127879E0,3.788824081E-1,-2.914940715E-1,9.692925453E0
4.041126421E0,3.836708367E-1,-3.250128925E-1,9.764751434E0
4.043124962E0,2.831143439E-1,-2.100912035E-1,9.759963036E0
4.045123504E0,2.304419130E-1,-3.106476665E-1,9.166201591E0
4.047122046E0,2.879027426E-1,-3.298012912E-1,9.606734276E0
4.049120587E0,3.501519859E-1,-9.516951442E-2,9.582792282E0
4.051119077E0,3.070563674E-1,-3.202244639E-1,9.027337074E0
4.053117410E0,2.926911712E-1,-5.931634903E-1,1.037287903E1
4.055115743E0,3.549404144E-1,-3.681085110E-1,9.582792282E0
4.057114077E0,3.501519859E-1,-9.038111567E-2,9.271546364E0
4.059112358E0,1.634042710E-1,-2.819172442E-1,9.855731010E0
4.061110639E0,1.969230920E-1,-5.883750916E-1,1.049258900E1
4.063108921E0,3.405751884E-1,-4.399345517E-1,1.039682102E1
4.065107202E0,2.926911712E-1,-1.813607812E-1,9.352949142E0
4.067105483E0,2.160767019E-1,-1.669955701E-1,9.372102737E0
4.069103764E0,1.298854351E-1,-1.376665942E-2,9.281123161E0
4.071102046E0,5.327098817E-2,-3.106476665E-1,9.573215485E0
4.073100327E0,7.242459804E-2,-4.495113790E-1,1.034414864E1
4.075098608E0,9.157821536E-2,-3.154360652E-1,1.011909389E1
4.077096889E0,1.203086376E-1,-4.728548229E-2,9.812635422E0
