"Time (s)","Acceleration x (m/s^2)","Acceleration y (m/s^2)","Acceleration z (m/s^2)"
1.832084400E-2,-3.292027488E-2,3.836708367E-1,9.822212219E0
1.927943800E-2,-3.292027488E-2,3.405751884E-1,9.817423820E0
2.124464600E-2,-3.292027488E-2,3.405751884E-1,9.783905029E0
2.320985500E-2,-1.855506375E-2,3.501519859E-1,9.769539833E0
2.517506300E-2,-4.249707982E-2,3.693056107E-1,9.755174637E0
2.714027100E-2,-2.813187055E-2,3.501519859E-1,9.745597839E0
2.910548000E-2,-2.813187055E-2,3.501519859E-1,9.745597839E0
3.107068800E-2,-5.207388848E-2,3.740940094E-1,9.726444244E0
3.303589600E-2,-4.728548229E-2,3.788824081E-1,9.664195061E0
3.500110500E-2,-6.165069342E-2,3.549404144E-1,9.635464668E0
3.696631300E-2,-5.207388848E-2,3.597288132E-1,9.621099472E0
3.893152100E-2,-8.978256024E-3,3.597288132E-1,9.664195061E0
4.089673000E-2,2.932897024E-2,3.405751884E-1,9.764751434E0
4.286193800E-2,7.721300423E-2,3.309983909E-1,9.865307808E0
4.482714600E-2,8.678980917E-2,3.453635871E-1,9.946710587E0
4.679235500E-2,9.157821536E-2,3.693056107E-1,9.898826599E0
4.875756300E-2,9.157821536E-2,3.405751884E-1,9.922768593E0
5.072277100E-2,7.721300423E-2,3.262099922E-1,9.937133789E0
5.268798000E-2,9.157821536E-2,3.214215636E-1,9.941922188E0
5.465318800E-2,1.107318252E-1,2.974795699E-1,9.961075783E0
5.661839600E-2,1.155202314E-1,3.070563674E-1,9.922768593E0
5.858360500E-2,1.203086376E-1,2.879027426E-1,9.903614998E0
6.054881300E-2,1.203086376E-1,2.879027426E-1,9.874884605E0
6.251402100E-2,1.250970364E-1,2.783259451E-1,9.841365814E0
6.447923000E-2,1.059434265E-1,2.735375464E-1,9.855731010E0
6.644443800E-2,9.636662155E-2,2.974795699E-1,9.865307808E0
6.840964600E-2,5.805939063E-2,2.926911712E-1,9.898826599E0
7.037485500E-2,2.454056777E-2,3.070563674E-1,9.894038200E0
7.234006300E-2,1.975216344E-2,3.118447661E-1,9.827000618E0
7.430527100E-2,-1.376665942E-2,3.214215636E-1,9.803058624E0
7.626829200E-2,1.496376097E-2,3.214215636E-1,9.846154213E0
7.823266700E-2,2.932897024E-2,2.926911712E-1,9.894038200E0
8.019969800E-2,3.411737457E-2,3.214215636E-1,9.860519409E0
8.217053200E-2,5.386953708E-3,2.926911712E-1,9.798270226E0
8.414610500E-2,1.017535757E-2,2.831143439E-1,9.721655846E0
8.612714600E-2,5.985504249E-4,2.974795699E-1,9.673771858E0
8.811407300E-2,1.975216344E-2,2.831143439E-1,9.649829865E0
9.010709400E-2,5.386953708E-3,2.735375464E-1,9.601945877E0
9.210615700E-2,1.496376097E-2,2.783259451E-1,9.649829865E0
9.411100000E-2,1.017535757E-2,2.879027426E-1,9.750386238E0
9.612110500E-2,5.985504249E-4,3.118447661E-1,9.793481827E0
9.813579200E-2,5.386953708E-3,3.166331649E-1,9.846154213E0
1.001541770E-1,-1.855506375E-2,3.309983909E-1,9.841365814E0
1.021753230E-1,-4.728548229E-2,3.405751884E-1,9.769539833E0
1.041981880E-1,-4.728548229E-2,3.405751884E-1,9.697713852E0
1.062217300E-1,-5.207388848E-2,3.453635871E-1,9.649829865E0
1.082366250E-1,-6.643909961E-2,3.549404144E-1,9.606734276E0
1.102347500E-1,-5.207388848E-2,3.501519859E-1,9.597157478E0
1.122327190E-1,-3.770867735E-2,3.453635871E-1,9.625887871E0
1.142306360E-1,-4.249707982E-2,3.549404144E-1,9.688137054E0
1.162285520E-1,-2.334346622E-2,3.501519859E-1,9.793481827E0
1.182264690E-1,-2.813187055E-2,3.597288132E-1,9.850942612E0
1.202243860E-1,-1.855506375E-2,3.884592354E-1,9.793481827E0
1.222223020E-1,-1.376665942E-2,3.788824081E-1,9.716867447E0
1.242202190E-1,-3.292027488E-2,3.693056107E-1,9.673771858E0
1.262181360E-1,-4.728548229E-2,3.836708367E-1,9.640253067E0
1.282161050E-1,-6.643909961E-2,3.836708367E-1,9.558850288E0
1.302141250E-1,-8.080431074E-2,3.980360329E-1,9.458293915E0
1.322121980E-1,-9.038111567E-2,3.788824081E-1,9.376891136E0
1.342103230E-1,-8.080431074E-2,3.693056107E-1,9.487024307E0
1.362084480E-1,-5.686229095E-2,3.740940094E-1,9.707290649E0
1.382065730E-1,-4.249707982E-2,4.219780564E-1,9.793481827E0
1.402046980E-1,-7.601590455E-2,5.608417392E-1,9.788693428E0
1.422028230E-1,-1.143231317E-1,5.321113467E-1,9.645041466E0
1.442009480E-1,-1.669955701E-1,4.985924959E-1,9.458293915E0
1.461990730E-1,-1.909375787E-1,4.985924959E-1,9.434351921E0
1.481971980E-1,-2.100912035E-1,4.602852762E-1,9.554061890E0
1.501953230E-1,-1.574187577E-1,4.650736749E-1,9.678560257E0
1.521934480E-1,-1.286883354E-1,4.842272997E-1,9.649829865E0
1.541915730E-1,-9.995792061E-2,4.938040972E-1,9.601945877E0
1.561896980E-1,-9.995792061E-2,4.507084787E-1,9.568427086E0
1.581878230E-1,-6.643909961E-2,4.650736749E-1,9.573215485E0
1.601859480E-1,-4.728548229E-2,4.315548539E-1,9.549273491E0
1.621840730E-1,-2.334346622E-2,3.788824081E-1,9.530119896E0
1.641821460E-1,5.386953708E-3,4.028244317E-1,9.520543098E0
1.661802190E-1,4.369417951E-2,4.219780564E-1,9.621099472E0
1.681782920E-1,3.890577704E-2,4.171896577E-1,9.721655846E0
1.701763650E-1,1.496376097E-2,4.219780564E-1,9.601945877E0
1.721743340E-1,-1.376665942E-2,4.411316514E-1,9.539696693E0
1.741722500E-1,-4.249707982E-2,4.411316514E-1,9.621099472E0
1.761701670E-1,-4.728548229E-2,4.028244317E-1,9.740809441E0
1.781680840E-1,-7.122749835E-2,3.980360329E-1,9.716867447E0
1.801657920E-1,-5.207388848E-2,4.076128304E-1,9.692925453E0
1.821635000E-1,-1.855506375E-2,4.363432527E-1,9.874884605E0
1.841612090E-1,2.454056777E-2,4.746504724E-1,9.989806175E0
1.861589170E-1,5.805939063E-2,4.985924959E-1,9.946710587E0
1.881566250E-1,8.200141042E-2,5.321113467E-1,9.759963036E0
1.901543340E-1,8.200141042E-2,5.656301379E-1,9.673771858E0
1.921520940E-1,1.107318252E-1,5.368997455E-1,9.922768593E0
1.941499070E-1,1.250970364E-1,4.315548539E-1,1.018613148E1
1.961477710E-1,1.586158574E-1,3.262099922E-1,1.036809063E1
1.981456880E-1,2.017114908E-1,2.400187254E-1,1.042076302E1
2.001436050E-1,2.543839216E-1,1.729810685E-1,1.038245583E1
2.021415210E-1,3.118447661E-1,1.155202314E-1,1.029147625E1
2.041394380E-1,3.309983909E-1,6.284779310E-2,1.021007347E1
2.061373550E-1,3.645172119E-1,5.327098817E-2,1.007120991E1
2.081352710E-1,3.453635871E-1,8.678980917E-2,9.913191795E0
2.101331880E-1,3.070563674E-1,1.011550203E-1,9.702502251E0
2.121311050E-1,2.783259451E-1,1.538274586E-1,9.506177902E0
2.141290210E-1,1.634042710E-1,2.208651006E-1,9.333795547E0
2.161269380E-1,6.284779310E-2,2.208651006E-1,9.166201591E0
2.181248550E-1,5.386953708E-3,2.304419130E-1,9.060855865E0
2.201227710E-1,-3.770867735E-2,2.543839216E-1,9.017760277E0
2.221206880E-1,-8.080431074E-2,2.543839216E-1,9.075222015E0
2.241186050E-1,-1.047463268E-1,2.783259451E-1,9.180566788E0
2.261165210E-1,-8.080431074E-2,3.022679687E-1,9.290699959E0
2.281144380E-1,-6.643909961E-2,3.070563674E-1,9.429563522E0
2.301123550E-1,-6.165069342E-2,3.549404144E-1,9.568427086E0
2.321102710E-1,-4.249707982E-2,4.124012291E-1,9.635464668E0
2.341081880E-1,-1.855506375E-2,4.842272997E-1,9.707290649E0
2.361061050E-1,-1.855506375E-2,5.273229480E-1,9.764751434E0
2.381040210E-1,1.496376097E-2,6.183025837E-1,9.745597839E0
2.401019380E-1,1.496376097E-2,6.757634282E-1,9.750386238E0
2.420999070E-1,5.985504249E-4,7.380126715E-1,9.769539833E0
2.440979270E-1,1.017535757E-2,7.858967185E-1,9.750386238E0
2.460960000E-1,-8.978256024E-3,8.337807655E-1,9.731232643E0
2.480940730E-1,-5.686229095E-2,8.768763542E-1,9.740809441E0
2.500921460E-1,-4.728548229E-2,9.008184075E-1,9.774328232E0
2.520902710E-1,-6.165069342E-2,9.199720025E-1,9.817423820E0
2.540884480E-1,-5.686229095E-2,8.960300088E-1,9.850942612E0
2.560866250E-1,-8.559270948E-2,9.103952050E-1,9.903614998E0
2.580848020E-1,-8.080431074E-2,9.343371987E-1,9.927556992E0
2.600829800E-1,-6.643909961E-2,9.247604012E-1,9.917980194E0
2.620811570E-1,-8.080431074E-2,9.247604012E-1,9.908403397E0
2.640793340E-1,-8.080431074E-2,9.487023950E-1,9.917980194E0
2.660775110E-1,-6.165069342E-2,9.582792521E-1,9.937133789E0
2.680756880E-1,-6.165069342E-2,9.630676508E-1,9.927556992E0
2.700738650E-1,-9.995792061E-2,9.965864420E-1,9.898826599E0
2.720719380E-1,-9.995792061E-2,1.044470549E0,9.836577415E0
2.740700110E-1,-1.238999367E-1,1.068412542E0,9.798270226E0
2.760680840E-1,-1.238999367E-1,1.097142935E0,9.783905029E0
2.780661050E-1,-1.286883354E-1,1.178545833E0,9.779116631E0
2.800639170E-1,-1.095347255E-1,1.178545833E0,9.745597839E0
2.820616770E-1,-2.244564146E-1,1.183334231E0,9.807847023E0
2.840594380E-1,-2.388216257E-1,1.192911029E0,9.807847023E0
2.860571980E-1,-2.005143911E-1,1.183334231E0,9.807847023E0
2.880549590E-1,-1.765723825E-1,1.192911029E0,9.817423820E0
2.900527190E-1,-1.478419602E-1,1.226429820E0,9.807847023E0
2.920505320E-1,-8.559270948E-2,1.226429820E0,9.755174637E0
2.940483960E-1,-1.095347255E-1,1.250371814E0,9.716867447E0
2.960463130E-1,-1.143231317E-1,1.245583415E0,9.668983459E0
2.980442820E-1,-9.995792061E-2,1.231218219E0,9.587580681E0
3.000423020E-1,-1.574187577E-1,1.221641421E0,9.616311073E0
3.020403750E-1,-1.478419602E-1,1.221641421E0,9.630676270E0
3.040385000E-1,-1.430535465E-1,1.121084929E0,9.731232643E0
3.060366770E-1,-1.095347255E-1,1.044470549E0,9.836577415E0
3.080349070E-1,-4.728548229E-2,1.020528436E0,9.831789017E0
3.100331360E-1,-4.728548229E-2,9.678560495E-1,9.664195061E0
3.120313650E-1,-3.292027488E-2,9.582792521E-1,9.424775124E0
3.140295940E-1,-5.207388848E-2,9.630676508E-1,9.501389503E0
3.160278230E-1,-1.334767491E-1,8.720879555E-1,9.386467934E0
3.180260520E-1,-1.957259923E-1,8.098387122E-1,9.405621529E0
3.200240730E-1,-2.148796022E-1,8.098387122E-1,9.587580681E0
3.220219380E-1,-1.957259923E-1,6.949170232E-1,9.731232643E0
3.240198020E-1,-2.053027898E-1,6.087257862E-1,9.941922188E0
3.260176670E-1,-1.574187577E-1,5.943605900E-1,1.001853657E1
3.280155320E-1,-1.238999367E-1,5.273229480E-1,9.994594574E0
3.300133960E-1,-1.334767491E-1,5.321113467E-1,9.884461403E0
3.320112610E-1,-1.526303589E-1,6.135141850E-1,9.688137054E0
3.340091250E-1,-2.292448133E-1,6.661866307E-1,9.285911560E0
3.360069900E-1,-2.771288455E-1,7.188590765E-1,9.266757965E0
3.380049070E-1,-3.058592677E-1,6.374561787E-1,9.803058624E0
3.400028750E-1,-3.154360652E-1,4.650736749E-1,1.020049667E1
3.420008960E-1,-2.771288455E-1,3.405751884E-1,1.026753426E1
3.439989170E-1,-2.388216257E-1,3.501519859E-1,1.019570827E1
3.459969380E-1,-1.574187577E-1,4.219780564E-1,9.961075783E0
3.479949590E-1,-1.574187577E-1,4.554968774E-1,9.759963036E0
3.499929800E-1,-1.574187577E-1,5.752069354E-1,9.659406662E0
3.519910000E-1,-1.813607812E-1,6.326677799E-1,9.582792282E0
3.539890210E-1,-2.483984232E-1,6.039373875E-1,9.563638687E0
3.559870420E-1,-2.819172442E-1,6.039373875E-1,9.549273491E0
3.579851150E-1,-3.728969097E-1,5.847837925E-1,9.625887871E0
3.599831880E-1,-2.914940715E-1,5.799953341E-1,9.587580681E0
3.619812610E-1,-2.675520480E-1,5.752069354E-1,9.664195061E0
3.639793340E-1,-2.819172442E-1,5.704185367E-1,9.707290649E0
3.659774070E-1,-2.053027898E-1,5.752069354E-1,9.649829865E0
3.679754800E-1,-1.669955701E-1,5.847837925E-1,9.592369080E0
3.699735520E-1,-2.100912035E-1,5.943605900E-1,9.525331497E0
3.719716250E-1,-1.957259923E-1,6.087257862E-1,9.525331497E0
3.739696980E-1,-1.191115379E-1,5.368997455E-1,9.951498985E0
3.759677710E-1,-5.686229095E-2,3.645172119E-1,1.030105305E1
3.779658440E-1,2.932897024E-2,2.735375464E-1,1.042076302E1
3.799639170E-1,1.250970364E-1,2.879027426E-1,1.024359226E1
3.819619900E-1,1.921346933E-1,3.788824081E-1,9.980229378E0
3.839600630E-1,1.729810685E-1,4.985924959E-1,9.788693428E0
3.859581360E-1,1.538274586E-1,6.135141850E-1,9.544485092E0
3.879562090E-1,1.298854351E-1,6.422445774E-1,9.367314339E0
3.899542820E-1,1.203086376E-1,6.613982320E-1,9.309853554E0
3.919523550E-1,6.763619930E-2,6.997054219E-1,9.348160744E0
3.939504270E-1,1.490390599E-1,7.140706778E-1,9.338583946E0
3.959485000E-1,2.352303118E-1,7.428010702E-1,9.352949142E0
3.979465730E-1,2.064998895E-1,6.613982320E-1,9.443928719E0
3.999446460E-1,2.208651006E-1,6.135141850E-1,9.482235909E0
4.019425630E-1,2.639607489E-1,5.847837925E-1,9.515754700E0
4.039404270E-1,2.879027426E-1,5.943605900E-1,9.515754700E0
4.059382920E-1,2.926911712E-1,6.901286244E-1,9.539696693E0
4.079361570E-1,2.208651006E-1,6.853402257E-1,9.549273491E0
4.099340210E-1,1.777694821E-1,6.949170232E-1,9.640253067E0
4.119318860E-1,1.059434265E-1,6.997054219E-1,9.774328232E0
4.139297500E-1,6.284779310E-2,7.188590765E-1,9.544485092E0
4.159276150E-1,-3.770867735E-2,8.289923668E-1,9.329007149E0
4.179254800E-1,-1.095347255E-1,9.295488000E-1,9.012971878E0
4.199233440E-1,-1.430535465E-1,9.391255975E-1,9.266757965E0
4.219212090E-1,-1.526303589E-1,8.002619147E-1,9.702502251E0
4.239190730E-1,-1.238999367E-1,5.512649417E-1,1.019570827E1
4.259169380E-1,-5.686229095E-2,3.645172119E-1,1.041597462E1
4.279148020E-1,7.242459804E-2,3.549404144E-1,1.041118622E1
4.299126670E-1,1.250970364E-1,3.693056107E-1,1.021965027E1
4.319105320E-1,1.155202314E-1,4.507084787E-1,1.000895977E1
4.339083960E-1,6.763619930E-2,5.416881442E-1,9.769539833E0
4.359062610E-1,2.932897024E-2,6.470330358E-1,9.568427086E0
4.379041250E-1,-4.249707982E-2,7.571662664E-1,9.515754700E0
4.399019900E-1,-9.516951442E-2,7.811083198E-1,9.496601105E0
4.418998550E-1,-1.191115379E-1,8.337807655E-1,9.558850288E0
4.438977190E-1,-1.813607812E-1,7.428010702E-1,9.640253067E0
4.458955840E-1,-2.005143911E-1,7.188590765E-1,9.649829865E0
4.478934480E-1,-1.765723825E-1,7.092822790E-1,9.649829865E0
4.498913130E-1,-1.622071713E-1,6.757634282E-1,9.649829865E0
4.518891770E-1,-1.622071713E-1,6.661866307E-1,9.697713852E0
4.538870420E-1,-1.334767491E-1,6.757634282E-1,9.755174637E0
4.558849070E-1,-1.191115379E-1,7.140706778E-1,9.692925453E0
4.578828230E-1,-1.622071713E-1,6.997054219E-1,9.578003883E0
4.598807920E-1,-2.388216257E-1,6.374561787E-1,9.539696693E0
4.618787610E-1,-1.909375787E-1,6.183025837E-1,9.592369080E0
4.638767300E-1,-2.436100245E-1,5.847837925E-1,9.726444244E0
4.658746980E-1,-2.675520480E-1,6.422445774E-1,9.827000618E0
4.678726670E-1,-2.053027898E-1,6.135141850E-1,9.807847023E0
4.698706360E-1,-1.957259923E-1,6.374561787E-1,9.745597839E0
4.718686050E-1,-2.053027898E-1,6.278793812E-1,9.683348656E0
4.738665730E-1,-2.244564146E-1,6.183025837E-1,9.587580681E0
4.758645420E-1,-1.909375787E-1,6.709750295E-1,9.587580681E0
4.778622500E-1,-1.717839688E-1,6.326677799E-1,9.525331497E0
4.798599590E-1,-1.095347255E-1,5.129576921E-1,9.534908295E0
4.818576670E-1,-1.143231317E-1,4.459200799E-1,9.702502251E0
4.838553750E-1,-6.643909961E-2,3.693056107E-1,9.664195061E0
4.858530840E-1,-4.728548229E-2,4.028244317E-1,9.673771858E0
4.878507920E-1,-3.292027488E-2,3.597288132E-1,9.673771858E0
4.898485000E-1,5.805939063E-2,3.549404144E-1,9.635464668E0
4.918462090E-1,1.250970364E-1,4.171896577E-1,9.539696693E0
4.938439170E-1,2.256535143E-1,3.549404144E-1,9.453505516E0
4.958416250E-1,2.448071241E-1,3.214215636E-1,9.654618263E0
4.978393340E-1,2.208651006E-1,2.974795699E-1,9.692925453E0
4.998370420E-1,2.017114908E-1,3.262099922E-1,9.745597839E0
5.018347500E-1,2.064998895E-1,3.262099922E-1,9.683348656E0
5.038324590E-1,2.352303118E-1,2.639607489E-1,9.645041466E0
5.058301670E-1,2.448071241E-1,3.309983909E-1,9.783905029E0
5.078278750E-1,2.400187254E-1,3.645172119E-1,9.692925453E0
5.098256360E-1,2.112883031E-1,4.267664552E-1,9.563638687E0
5.118234480E-1,2.112883031E-1,4.938040972E-1,9.496601105E0
5.138213130E-1,1.825578809E-1,4.650736749E-1,9.683348656E0
5.158192300E-1,1.969230920E-1,4.842272997E-1,1.000895977E1
5.178171460E-1,1.298854351E-1,5.512649417E-1,1.013345909E1
5.198150630E-1,2.454056777E-2,5.799953341E-1,9.975440979E0
5.218129800E-1,5.985504249E-4,6.566098332E-1,9.917980194E0
5.238108960E-1,-9.995792061E-2,7.380126715E-1,9.841365814E0
5.258088130E-1,-1.622071713E-1,8.433575630E-1,9.846154213E0
5.278067300E-1,-2.100912035E-1,8.720879555E-1,9.874884605E0
5.298046460E-1,-2.053027898E-1,9.582792521E-1,9.989806175E0
5.318025630E-1,-2.244564146E-1,9.151836038E-1,1.005684471E1
5.338004800E-1,-2.244564146E-1,9.199720025E-1,1.015740108E1
5.357981360E-1,-2.292448133E-1,9.630676508E-1,9.956287384E0
5.377957920E-1,-2.436100245E-1,8.864531517E-1,9.812635422E0
5.397934480E-1,-2.196680009E-1,8.433575630E-1,9.855731010E0
5.417911050E-1,-2.340332121E-1,7.380126715E-1,9.860519409E0
5.437887610E-1,-1.909375787E-1,6.374561787E-1,9.865307808E0
5.457864170E-1,-1.191115379E-1,5.943605900E-1,9.836577415E0
5.477840730E-1,-9.995792061E-2,6.183025837E-1,9.659406662E0
5.497817300E-1,-1.191115379E-1,5.847837925E-1,9.654618263E0
5.517793860E-1,-1.047463268E-1,5.752069354E-1,9.668983459E0
5.537770420E-1,-5.207388848E-2,5.895721912E-1,9.563638687E0
5.557747500E-1,-3.770867735E-2,5.895721912E-1,9.443928719E0
5.577725110E-1,4.369417951E-2,5.368997455E-1,9.362525940E0
5.597703230E-1,1.011550203E-1,3.357867897E-1,9.712079048E0
5.617681880E-1,1.921346933E-1,2.256535143E-1,1.021486187E1
5.637661050E-1,2.495955229E-1,8.200141042E-2,1.041597462E1
5.657640730E-1,2.304419130E-1,-8.978256024E-3,1.043991661E1
5.677620940E-1,2.448071241E-1,-4.189853091E-3,1.031541824E1
5.697601150E-1,1.825578809E-1,9.157821536E-2,9.927556992E0
5.717581360E-1,1.681926697E-1,1.825578809E-1,9.597157478E0
5.737561570E-1,1.825578809E-1,3.309983909E-1,9.391256332E0
5.757541770E-1,1.538274586E-1,3.693056107E-1,9.276334763E0
5.777521980E-1,1.394622475E-1,2.735375464E-1,9.525331497E0
5.797502190E-1,1.155202314E-1,2.735375464E-1,9.764751434E0
5.817482400E-1,1.011550203E-1,2.591723204E-1,9.568427086E0
5.837460520E-1,8.200141042E-2,2.208651006E-1,9.563638687E0
5.857438650E-1,1.011550203E-1,2.448071241E-1,9.731232643E0
5.877416770E-1,1.203086376E-1,2.208651006E-1,9.692925453E0
5.897394900E-1,1.538274586E-1,2.495955229E-1,9.659406662E0
5.917373020E-1,1.777694821E-1,2.448071241E-1,9.649829865E0
5.937350110E-1,1.203086376E-1,2.687491477E-1,9.803058624E0
5.957327190E-1,1.203086376E-1,3.788824081E-1,9.750386238E0
5.977304270E-1,5.805939063E-2,4.746504724E-1,9.578003883E0
5.997281360E-1,-4.189853091E-3,4.842272997E-1,9.453505516E0
6.017258440E-1,-4.728548229E-2,5.033808947E-1,9.439140320E0
6.037235520E-1,-5.207388848E-2,5.895721912E-1,8.993818283E0
6.057212610E-1,-4.249707982E-2,6.470330358E-1,8.888473511E0
6.077189690E-1,2.454056777E-2,5.752069354E-1,9.558850288E0
6.097166770E-1,2.454056777E-2,2.495955229E-1,1.035372543E1
6.117143860E-1,1.975216344E-2,2.454056777E-2,1.078468132E1
6.137120940E-1,2.454056777E-2,-2.334346622E-2,1.059793377E1
6.157098020E-1,1.496376097E-2,9.157821536E-2,1.005684471E1
6.177075110E-1,1.975216344E-2,1.634042710E-1,9.252392769E0
6.197052190E-1,8.200141042E-2,-9.516951442E-2,9.228450775E0
6.217029270E-1,9.636662155E-2,-2.813187055E-2,1.025316906E1
6.237006880E-1,1.250970364E-1,8.678980917E-2,1.035851383E1
6.256985000E-1,5.327098817E-2,1.921346933E-1,9.836577415E0
6.276963130E-1,-5.686229095E-2,3.884592354E-1,9.405621529E0
6.296941250E-1,-1.813607812E-1,4.411316514E-1,9.147047997E0
6.316919380E-1,-2.483984232E-1,4.554968774E-1,9.204508781E0
6.336897500E-1,-1.334767491E-1,3.836708367E-1,9.261969566E0
6.356875630E-1,-4.249707982E-2,3.309983909E-1,9.510966301E0
6.376853750E-1,1.496376097E-2,2.591723204E-1,9.716867447E0
6.396831880E-1,2.454056777E-2,2.543839216E-1,9.783905029E0
6.416810000E-1,1.496376097E-2,2.400187254E-1,9.783905029E0
6.436788130E-1,1.059434265E-1,2.495955229E-1,9.793481827E0
6.456766250E-1,2.454056777E-2,2.735375464E-1,9.879673004E0
6.476744380E-1,-4.189853091E-3,2.974795699E-1,9.788693428E0
6.496722500E-1,-4.189853091E-3,3.501519859E-1,9.664195061E0
6.516700630E-1,-4.189853091E-3,4.507084787E-1,9.740809441E0
6.536678750E-1,5.985504249E-4,4.698620737E-1,9.707290649E0
6.556656880E-1,-8.978256024E-3,4.890156984E-1,9.683348656E0
6.576635000E-1,4.369417951E-2,5.129576921E-1,9.812635422E0
6.596613130E-1,6.763619930E-2,5.273229480E-1,9.827000618E0
6.616591250E-1,4.848258570E-2,4.507084787E-1,9.673771858E0
6.636569380E-1,2.454056777E-2,3.932476342E-1,9.745597839E0
6.656547500E-1,5.386953708E-3,3.309983909E-1,9.860519409E0
6.676525630E-1,5.805939063E-2,3.405751884E-1,9.836577415E0
6.696503750E-1,1.107318252E-1,3.884592354E-1,9.707290649E0
6.716481880E-1,1.059434265E-1,3.022679687E-1,9.635464668E0
6.736459480E-1,4.848258570E-2,2.831143439E-1,9.673771858E0
6.756437090E-1,6.763619930E-2,3.262099922E-1,9.649829865E0
6.776414690E-1,5.805939063E-2,3.405751884E-1,9.630676270E0
6.796392300E-1,4.369417951E-2,2.783259451E-1,9.582792282E0
6.816369900E-1,5.805939063E-2,3.166331649E-1,9.587580681E0
6.836347500E-1,1.250970364E-1,2.639607489E-1,9.783905029E0
6.856325110E-1,1.777694821E-1,1.825578809E-1,9.956287384E0
6.876302710E-1,1.634042710E-1,2.064998895E-1,9.989806175E0
6.896280320E-1,1.729810685E-1,3.788824081E-1,9.807847023E0
6.916257920E-1,1.442506462E-1,4.363432527E-1,9.487024307E0
6.936235520E-1,9.157821536E-2,3.405751884E-1,9.367314339E0
6.956213130E-1,8.200141042E-2,2.926911712E-1,9.549273491E0
6.976191250E-1,1.346738487E-1,2.783259451E-1,9.582792282E0
6.996169900E-1,2.017114908E-1,2.639607489E-1,9.645041466E0
7.016149070E-1,1.586158574E-1,2.591723204E-1,9.721655846E0
7.036128750E-1,1.490390599E-1,1.155202314E-1,9.769539833E0
7.056108960E-1,1.442506462E-1,1.011550203E-1,9.956287384E0
7.076089690E-1,6.763619930E-2,2.256535143E-1,1.002332497E1
7.096070420E-1,-3.292027488E-2,3.070563674E-1,9.764751434E0
7.116051150E-1,-7.601590455E-2,3.309983909E-1,9.482235909E0
7.136031880E-1,-1.191115379E-1,4.267664552E-1,9.386467934E0
7.156012610E-1,-1.813607812E-1,3.262099922E-1,9.601945877E0
7.175993340E-1,-1.382651478E-1,2.926911712E-1,9.927556992E0
7.195973550E-1,-9.995792061E-2,3.405751884E-1,9.994594574E0
7.215949070E-1,-1.334767491E-1,4.267664552E-1,9.850942612E0
7.235924590E-1,-1.238999367E-1,4.459200799E-1,9.515754700E0
7.255900110E-1,-1.909375787E-1,3.836708367E-1,9.697713852E0
7.275875630E-1,-2.053027898E-1,4.171896577E-1,1.005684471E1
7.295851150E-1,-1.765723825E-1,5.656301379E-1,1.010951710E1
7.315826670E-1,-1.957259923E-1,5.512649417E-1,1.000417137E1
7.335802710E-1,-2.100912035E-1,5.799953341E-1,9.903614998E0
7.355779270E-1,-1.909375787E-1,7.763199210E-1,9.606734276E0
7.375756360E-1,-1.669955701E-1,8.289923668E-1,9.453505516E0
7.395733960E-1,-1.382651478E-1,6.949170232E-1,9.424775124E0
7.415712090E-1,-1.717839688E-1,4.938040972E-1,9.755174637E0
7.435690730E-1,-9.995792061E-2,3.645172119E-1,1.005684471E1
7.455669900E-1,-7.122749835E-2,2.783259451E-1,1.007599831E1
7.475649590E-1,-1.143231317E-1,2.208651006E-1,9.975440979E0
7.495629800E-1,-1.238999367E-1,3.501519859E-1,9.716867447E0
7.515610000E-1,-1.861491799E-1,3.980360329E-1,9.453505516E0
7.535590210E-1,-2.292448133E-1,2.400187254E-1,9.305065155E0
7.555570420E-1,-3.968389332E-1,-5.686229095E-2,9.568427086E0
7.575550630E-1,-2.627636492E-1,-2.962824702E-1,9.985017776E0
7.595530840E-1,-9.038111567E-2,-3.633201122E-1,9.750386238E0
7.615511050E-1,5.985504249E-4,-4.495113790E-1,9.601945877E0
7.635491250E-1,3.070563674E-1,-3.920505345E-1,9.855731010E0
7.655469380E-1,2.591723204E-1,-3.872621357E-1,1.015261269E1
7.675447500E-1,8.678980917E-2,-5.686229095E-2,9.913191795E0
7.695424070E-1,1.634042710E-1,6.763619930E-2,9.525331497E0
7.715400630E-1,1.011550203E-1,1.017535757E-2,9.549273491E0
7.735377190E-1,2.112883031E-1,-1.855506375E-2,9.683348656E0
7.755353750E-1,2.879027426E-1,1.394622475E-1,1.002811337E1
7.775330320E-1,2.543839216E-1,2.783259451E-1,9.922768593E0
7.795306880E-1,1.729810685E-1,3.309983909E-1,9.740809441E0
7.815283960E-1,7.721300423E-2,2.783259451E-1,9.740809441E0
7.835261570E-1,1.059434265E-1,2.160767019E-1,9.879673004E0
7.855239690E-1,3.411737457E-2,1.777694821E-1,9.874884605E0
7.875218340E-1,-4.249707982E-2,2.017114908E-1,9.697713852E0
7.895197500E-1,-7.122749835E-2,1.538274586E-1,9.400833130E0
7.915177190E-1,-1.717839688E-1,8.200141042E-2,9.501389503E0
7.935157400E-1,-1.526303589E-1,1.017535757E-2,9.721655846E0
7.955138130E-1,-2.100912035E-1,-2.813187055E-2,9.803058624E0
7.975119380E-1,-2.388216257E-1,-8.080431074E-2,9.688137054E0
7.995100630E-1,-2.388216257E-1,-4.728548229E-2,9.506177902E0
8.015081880E-1,-2.292448133E-1,1.011550203E-1,9.597157478E0
8.035063130E-1,-2.627636492E-1,-4.728548229E-2,9.889249802E0
8.055044380E-1,-1.765723825E-1,5.805939063E-2,9.726444244E0
8.075025630E-1,-2.771288455E-1,1.017535757E-2,9.453505516E0
8.095006880E-1,-2.292448133E-1,1.777694821E-1,9.640253067E0
8.114986570E-1,-4.447229803E-1,-1.334767491E-1,9.477447510E0
8.134964690E-1,-1.861491799E-1,-2.292448133E-1,9.625887871E0
8.154942820E-1,2.932897024E-2,-3.298012912E-1,9.865307808E0
8.174920940E-1,1.107318252E-1,-2.723404467E-1,1.007120991E1
8.194899070E-1,4.938040972E-1,1.442506462E-1,1.024359226E1
8.214877190E-1,3.549404144E-1,6.518214345E-1,9.884461403E0
8.234855320E-1,-1.334767491E-1,3.740940094E-1,8.692149162E0
8.254833440E-1,1.538274586E-1,5.464765429E-1,9.204508781E0
8.274811570E-1,-9.038111567E-2,5.273229480E-1,9.352949142E0
8.294789690E-1,-2.196680009E-1,-4.728548229E-2,9.865307808E0
8.314767820E-1,-8.559270948E-2,-4.189853091E-3,1.076073933E1
8.334745940E-1,1.394622475E-1,-7.122749835E-2,1.030105305E1
8.354724070E-1,2.591723204E-1,-4.189853091E-3,9.573215485E0
8.374702190E-1,2.591723204E-1,2.932897024E-2,9.362525940E0
8.394680320E-1,2.400187254E-1,1.442506462E-1,9.295488358E0
8.414658960E-1,3.411737457E-2,1.346738487E-1,9.190143585E0
8.434638130E-1,2.932897024E-2,-8.978256024E-3,9.884461403E0
8.454617820E-1,1.107318252E-1,-5.686229095E-2,1.070327854E1
8.474598020E-1,5.386953708E-3,-6.643909961E-2,1.048780060E1
8.494578230E-1,2.932897024E-2,-1.047463268E-1,9.740809441E0
8.514558440E-1,1.777694821E-1,1.017535757E-2,9.127894402E0
8.534538650E-1,1.298854351E-1,-4.189853091E-3,9.218873978E0
8.554518860E-1,3.411737457E-2,-1.047463268E-1,9.443928719E0
8.574499070E-1,1.107318252E-1,-2.723404467E-1,9.855731010E0
8.594479270E-1,6.763619930E-2,-3.872621357E-1,1.028668785E1
8.614459480E-1,-4.189853091E-3,-4.112041295E-1,1.055962658E1
8.634439690E-1,-1.717839688E-1,-1.430535465E-1,9.841365814E0
8.654419900E-1,-3.441664875E-1,-8.978256024E-3,9.070432663E0
8.674400110E-1,-4.638765752E-1,-2.813187055E-2,8.811859131E0
8.694380320E-1,-4.303577542E-1,-2.292448133E-1,9.443928719E0
8.714360520E-1,-4.064157307E-1,-4.542997777E-1,1.014303589E1
8.734340730E-1,-3.872621357E-1,-4.112041295E-1,1.032499504E1
8.754320940E-1,-3.681085110E-1,-2.819172442E-1,9.894038200E0
8.774301150E-1,-3.154360652E-1,-2.196680009E-1,9.477447510E0
8.794280320E-1,-2.962824702E-1,-1.813607812E-1,9.587580681E0
8.814258960E-1,-3.010708690E-1,-1.957259923E-1,9.994594574E0
8.834237610E-1,-2.292448133E-1,-1.095347255E-1,9.755174637E0
8.854216250E-1,-1.765723825E-1,7.721300423E-2,9.448717117E0
8.874194900E-1,-1.574187577E-1,1.250970364E-1,9.568427086E0
8.894173550E-1,-5.207388848E-2,1.496376097E-2,9.846154213E0
8.914152190E-1,2.932897024E-2,7.242459804E-2,1.004726696E1
8.934130840E-1,5.386953708E-3,1.490390599E-1,9.803058624E0
8.954109480E-1,5.327098817E-2,3.166331649E-1,9.549273491E0
8.974088130E-1,1.011550203E-1,3.884592354E-1,9.621099472E0
8.994066770E-1,1.538274586E-1,3.932476342E-1,9.788693428E0
9.014045420E-1,1.681926697E-1,4.076128304E-1,9.946710587E0
9.034024070E-1,1.873462796E-1,5.129576921E-1,9.716867447E0
9.054002710E-1,1.969230920E-1,6.709750295E-1,9.276334763E0
9.073981360E-1,2.735375464E-1,5.704185367E-1,9.515754700E0
9.093960000E-1,2.208651006E-1,4.171896577E-1,1.021486187E1
9.113938650E-1,2.112883031E-1,4.650736749E-1,1.012867069E1
9.133917300E-1,1.586158574E-1,5.464765429E-1,9.558850288E0
9.153895940E-1,1.969230920E-1,4.602852762E-1,9.601945877E0
9.173874590E-1,1.298854351E-1,4.076128304E-1,9.908403397E0
9.193853230E-1,6.284779310E-2,3.836708367E-1,9.812635422E0
9.213831880E-1,4.848258570E-2,4.076128304E-1,9.601945877E0
9.233810520E-1,4.848258570E-2,4.124012291E-1,9.697713852E0
9.253788650E-1,8.678980917E-2,4.076128304E-1,9.807847023E0
9.273766770E-1,1.729810685E-1,4.363432527E-1,9.606734276E0
9.293744900E-1,1.969230920E-1,4.219780564E-1,9.755174637E0
9.313723020E-1,1.873462796E-1,4.698620737E-1,9.932345390E0
9.333701150E-1,1.681926697E-1,6.087257862E-1,9.314641953E0
9.353679270E-1,1.729810685E-1,5.321113467E-1,9.376891136E0
9.373657400E-1,1.394622475E-1,4.124012291E-1,9.946710587E0
9.393635520E-1,1.394622475E-1,3.980360329E-1,9.884461403E0
9.413613650E-1,1.346738487E-1,4.315548539E-1,9.721655846E0
9.433591770E-1,8.678980917E-2,4.650736749E-1,9.683348656E0
9.453569900E-1,5.985504249E-4,4.985924959E-1,9.692925453E0
9.473548020E-1,3.411737457E-2,3.932476342E-1,9.525331497E0
9.493526150E-1,2.454056777E-2,3.357867897E-1,9.846154213E0
9.513504270E-1,6.284779310E-2,5.033808947E-1,9.903614998E0
9.533482400E-1,1.496376097E-2,6.183025837E-1,9.515754700E0
9.553460520E-1,8.678980917E-2,6.230909824E-1,9.491812706E0
9.573438650E-1,-1.376665942E-2,5.321113467E-1,9.822212219E0
9.593416770E-1,-4.728548229E-2,4.411316514E-1,1.019091988E1
9.613394900E-1,-8.559270948E-2,4.650736749E-1,1.019091988E1
9.633373020E-1,-1.047463268E-1,5.560533404E-1,9.726444244E0
9.653351150E-1,-1.526303589E-1,6.566098332E-1,9.314641953E0
9.673327710E-1,-1.382651478E-1,6.709750295E-1,9.376891136E0
9.693303750E-1,-1.143231317E-1,5.368997455E-1,9.587580681E0
9.713279800E-1,-1.855506375E-2,4.315548539E-1,9.774328232E0
9.733255840E-1,-8.978256024E-3,4.315548539E-1,9.879673004E0
9.753231880E-1,-4.249707982E-2,3.645172119E-1,9.592369080E0
9.773208440E-1,3.411737457E-2,2.160767019E-1,9.759963036E0
9.793185520E-1,6.284779310E-2,7.242459804E-2,1.018613148E1
9.813163130E-1,1.777694821E-1,5.805939063E-2,1.015261269E1
9.833141250E-1,1.107318252E-1,3.118447661E-1,9.889249802E0
9.853119900E-1,-3.292027488E-2,4.842272997E-1,9.032125473E0
9.873099070E-1,-5.686229095E-2,4.746504724E-1,9.108740807E0
9.893078750E-1,-4.249707982E-2,3.118447661E-1,9.759963036E0
9.913058960E-1,3.890577704E-2,2.687491477E-1,9.937133789E0
9.933039690E-1,3.890577704E-2,3.549404144E-1,9.970652580E0
9.953020420E-1,3.890577704E-2,2.495955229E-1,9.539696693E0
9.973001150E-1,5.327098817E-2,1.825578809E-1,9.827000618E0
9.992981880E-1,1.442506462E-1,1.442506462E-1,1.013824749E1
1.001296261E0,9.636662155E-2,3.214215636E-1,9.932345390E0
1.003294334E0,5.805939063E-2,4.411316514E-1,9.352949142E0
1.005292302E0,-8.978256024E-3,5.177460909E-1,9.472659111E0
1.007290011E0,-2.334346622E-2,3.501519859E-1,9.764751434E0
1.009287719E0,4.848258570E-2,3.740940094E-1,1.016218948E1
1.011285427E0,1.975216344E-2,5.416881442E-1,9.807847023E0
1.013283136E0,-8.978256024E-3,4.171896577E-1,9.357737541E0
1.015280844E0,1.017535757E-2,3.740940094E-1,9.927556992E0
1.017278552E0,1.975216344E-2,4.842272997E-1,9.731232643E0
1.019276261E0,5.327098817E-2,5.943605900E-1,9.381679535E0
1.021273969E0,1.059434265E-1,5.752069354E-1,9.424775124E0
1.023271677E0,9.157821536E-2,4.698620737E-1,1.019091988E1
1.025269386E0,9.157821536E-2,4.938040972E-1,9.894038200E0
1.027267094E0,3.890577704E-2,5.081692934E-1,9.510966301E0
1.029264802E0,4.848258570E-2,3.932476342E-1,9.841365814E0
1.031262511E0,3.890577704E-2,2.831143439E-1,1.008557510E1
1.033260219E0,9.157821536E-2,3.022679687E-1,9.850942612E0
1.035257927E0,2.932897024E-2,3.262099922E-1,9.635464668E0
1.037255636E0,-6.643909961E-2,3.309983909E-1,9.554061890E0
1.039253344E0,-4.189853091E-3,2.831143439E-1,9.740809441E0
1.041251105E0,1.975216344E-2,3.597288132E-1,9.683348656E0
1.043248917E0,3.411737457E-2,4.554968774E-1,9.578003883E0
1.045246782E0,-2.813187055E-2,4.028244317E-1,9.597157478E0
1.047244698E0,-8.080431074E-2,1.921346933E-1,9.922768593E0
1.049242667E0,-1.095347255E-1,2.352303118E-1,9.956287384E0
1.051240688E0,-7.122749835E-2,2.639607489E-1,9.463082314E0
1.053238761E0,-1.376665942E-2,2.687491477E-1,9.740809441E0
1.055236886E0,-7.601590455E-2,6.284779310E-2,9.850942612E0
1.057235063E0,-1.095347255E-1,-3.770867735E-2,1.005684471E1
1.059233240E0,-1.143231317E-1,6.763619930E-2,9.712079048E0
1.061231417E0,-9.516951442E-2,7.242459804E-2,9.515754700E0
1.063229594E0,-1.191115379E-1,7.721300423E-2,9.625887871E0
1.065227771E0,-1.574187577E-1,4.369417951E-2,9.798270226E0
1.067225948E0,-7.122749835E-2,9.636662155E-2,9.774328232E0
1.069224125E0,2.454056777E-2,1.107318252E-1,9.558850288E0
1.071222302E0,-6.643909961E-2,1.586158574E-1,9.726444244E0
1.073220480E0,-6.165069342E-2,2.400187254E-1,9.793481827E0
1.075218657E0,4.848258570E-2,2.208651006E-1,9.659406662E0
1.077216782E0,-8.978256024E-3,2.400187254E-1,9.745597839E0
1.079214907E0,5.386953708E-3,3.309983909E-1,9.367314339E0
1.081213032E0,1.975216344E-2,3.214215636E-1,9.668983459E0
1.083211157E0,7.721300423E-2,1.921346933E-1,9.884461403E0
1.085209282E0,6.284779310E-2,1.017535757E-2,9.827000618E0
1.087207407E0,1.586158574E-1,3.411737457E-2,9.592369080E0
1.089205532E0,1.681926697E-1,2.687491477E-1,9.879673004E0
1.091203605E0,1.011550203E-1,4.985924959E-1,9.903614998E0
1.093201365E0,5.327098817E-2,6.422445774E-1,9.539696693E0
1.095199125E0,6.763619930E-2,6.901286244E-1,9.491812706E0
1.097196886E0,6.284779310E-2,6.135141850E-1,9.894038200E0
1.099194646E0,6.284779310E-2,5.177460909E-1,9.836577415E0
1.101192407E0,3.890577704E-2,4.842272997E-1,9.894038200E0
1.103190167E0,-8.978256024E-3,6.326677799E-1,9.563638687E0
1.105187927E0,-5.686229095E-2,6.709750295E-1,9.352949142E0
1.107185688E0,4.369417951E-2,4.985924959E-1,9.400833130E0
1.109183448E0,-4.189853091E-3,3.022679687E-1,9.913191795E0
1.111181261E0,1.155202314E-1,2.017114908E-1,9.779116631E0
1.113179125E0,1.107318252E-1,2.543839216E-1,9.812635422E0
1.115177042E0,2.454056777E-2,2.687491477E-1,9.520543098E0
1.117175011E0,1.107318252E-1,1.634042710E-1,9.683348656E0
1.119173032E0,2.017114908E-1,7.242459804E-2,9.841365814E0
1.121171105E0,1.634042710E-1,1.250970364E-1,9.750386238E0
1.123169230E0,2.256535143E-1,3.411737457E-2,9.827000618E0
1.125167407E0,2.256535143E-1,7.242459804E-2,1.006163311E1
1.127165636E0,2.112883031E-1,4.076128304E-1,9.621099472E0
1.129163917E0,1.586158574E-1,5.033808947E-1,9.056067467E0
1.131162250E0,1.298854351E-1,3.932476342E-1,9.496601105E0
1.133160584E0,1.298854351E-1,2.400187254E-1,9.932345390E0
1.135158917E0,1.394622475E-1,3.118447661E-1,9.975440979E0
1.137157250E0,2.017114908E-1,4.171896577E-1,9.793481827E0
1.139155584E0,2.017114908E-1,4.315548539E-1,9.554061890E0
1.141153917E0,1.777694821E-1,4.507084787E-1,9.707290649E0
1.143152250E0,2.208651006E-1,5.416881442E-1,9.549273491E0
1.145150323E0,2.495955229E-1,4.746504724E-1,9.563638687E0
1.147148396E0,1.107318252E-1,3.645172119E-1,9.865307808E0
1.149146469E0,1.921346933E-1,4.315548539E-1,9.841365814E0
1.151144490E0,2.160767019E-1,3.740940094E-1,9.803058624E0
1.153142302E0,2.017114908E-1,3.788824081E-1,9.951498985E0
1.155140115E0,1.298854351E-1,4.794389009E-1,9.645041466E0
1.157137927E0,1.825578809E-1,3.166331649E-1,9.654618263E0
1.159135740E0,1.107318252E-1,2.256535143E-1,1.018613148E1
1.161133552E0,9.157821536E-2,3.932476342E-1,9.731232643E0
1.163131365E0,1.777694821E-1,3.740940094E-1,9.510966301E0
1.165129177E0,1.442506462E-1,3.262099922E-1,9.721655846E0
1.167126990E0,1.634042710E-1,4.507084787E-1,9.716867447E0
1.169124802E0,9.636662155E-2,4.171896577E-1,9.333795547E0
1.171122615E0,4.369417951E-2,2.495955229E-1,1.005684471E1
1.173120427E0,9.636662155E-2,3.022679687E-1,9.903614998E0
1.175118240E0,2.932897024E-2,3.166331649E-1,9.697713852E0
1.177116052E0,-5.207388848E-2,3.309983909E-1,9.774328232E0
1.179113865E0,3.890577704E-2,2.400187254E-1,9.578003883E0
1.181111730E0,1.250970364E-1,1.442506462E-1,9.822212219E0
1.183109646E0,1.975216344E-2,2.256535143E-1,9.740809441E0
1.185107615E0,4.848258570E-2,3.740940094E-1,9.223662376E0
1.187105584E0,7.721300423E-2,3.070563674E-1,9.611522675E0
1.189103552E0,1.298854351E-1,3.357867897E-1,9.640253067E0
1.191101573E0,1.059434265E-1,3.549404144E-1,9.573215485E0
1.193099646E0,1.490390599E-1,1.921346933E-1,1.006163311E1
1.195097719E0,9.636662155E-2,1.634042710E-1,1.036809063E1
1.197095792E0,1.346738487E-1,3.693056107E-1,9.329007149E0
1.199093865E0,2.208651006E-1,2.639607489E-1,9.180566788E0
1.201091938E0,2.112883031E-1,2.454056777E-2,9.961075783E0
1.203090011E0,2.352303118E-1,2.454056777E-2,1.049737740E1
1.205088084E0,3.788824081E-1,3.309983909E-1,9.922768593E0
1.207086157E0,3.357867897E-1,3.453635871E-1,9.396044731E0
1.209084230E0,2.304419130E-1,2.256535143E-1,9.846154213E0
1.211082302E0,2.400187254E-1,4.746504724E-1,9.592369080E0
1.213080375E0,3.118447661E-1,4.267664552E-1,9.056067467E0
1.215078448E0,3.549404144E-1,2.448071241E-1,1.001853657E1
1.217076521E0,2.926911712E-1,2.591723204E-1,9.836577415E0
1.219074594E0,2.304419130E-1,3.501519859E-1,1.000895977E1
1.221072667E0,3.118447661E-1,3.405751884E-1,9.712079048E0
1.223070740E0,2.591723204E-1,4.363432527E-1,9.640253067E0
1.225068813E0,3.549404144E-1,5.416881442E-1,9.329007149E0
1.227066677E0,2.639607489E-1,5.081692934E-1,9.482235909E0
1.229064542E0,2.687491477E-1,3.357867897E-1,9.927556992E0
1.231062407E0,2.017114908E-1,2.400187254E-1,1.036809063E1
1.233060271E0,2.926911712E-1,4.267664552E-1,9.946710587E0
1.235058136E0,2.064998895E-1,5.129576921E-1,9.496601105E0
1.237056000E0,1.490390599E-1,5.608417392E-1,9.803058624E0
1.239053865E0,1.538274586E-1,6.422445774E-1,9.443928719E0
1.241051730E0,8.200141042E-2,6.135141850E-1,9.223662376E0
1.243049594E0,5.985504249E-4,6.135141850E-1,9.147047997E0
1.245047407E0,1.873462796E-1,2.735375464E-1,9.563638687E0
1.247045167E0,1.011550203E-1,-6.643909961E-2,1.086608410E1
1.249042927E0,4.369417951E-2,5.327098817E-2,1.080862331E1
1.251040688E0,5.985504249E-4,3.501519859E-1,9.783905029E0
1.253038448E0,2.454056777E-2,7.092822790E-1,8.629899979E0
1.255036209E0,-3.770867735E-2,6.997054219E-1,8.974664688E0
1.257033969E0,-1.095347255E-1,3.501519859E-1,1.003290176E1
1.259031730E0,-5.207388848E-2,3.357867897E-1,1.032020664E1
1.261029490E0,-7.122749835E-2,5.081692934E-1,9.673771858E0
1.263027250E0,5.985504249E-4,5.943605900E-1,9.190143585E0
1.265025011E0,-8.080431074E-2,4.890156984E-1,9.568427086E0
1.267022771E0,-2.813187055E-2,3.070563674E-1,1.006163311E1
1.269020584E0,-2.813187055E-2,3.022679687E-1,1.030105305E1
1.271018448E0,-4.728548229E-2,4.411316514E-1,9.726444244E0
1.273016365E0,-1.334767491E-1,7.044938207E-1,9.362525940E0
1.275014334E0,-1.191115379E-1,6.853402257E-1,8.878896713E0
1.277012355E0,-8.559270948E-2,3.405751884E-1,1.002811337E1
1.279010427E0,-1.855506375E-2,2.017114908E-1,1.053089619E1
1.281008552E0,-4.728548229E-2,3.788824081E-1,9.941922188E0
1.283006677E0,5.327098817E-2,3.501519859E-1,9.616311073E0
1.285004802E0,1.250970364E-1,3.980360329E-1,9.396044731E0
1.287002927E0,1.777694821E-1,1.203086376E-1,9.769539833E0
1.289001052E0,9.157821536E-2,1.442506462E-1,1.014303589E1
1.290999177E0,1.777694821E-1,4.602852762E-1,9.156624794E0
1.292997042E0,1.634042710E-1,2.448071241E-1,9.233239174E0
1.294994907E0,1.729810685E-1,8.200141042E-2,1.017655468E1
1.296992771E0,1.107318252E-1,-4.189853091E-3,9.903614998E0
1.298990636E0,7.242459804E-2,1.059434265E-1,1.001853657E1
1.300988500E0,9.636662155E-2,3.262099922E-1,9.391256332E0
1.302986365E0,-2.334346622E-2,3.645172119E-1,9.118317604E0
1.304984230E0,6.763619930E-2,2.639607489E-1,9.549273491E0
1.306982094E0,1.298854351E-1,1.975216344E-2,1.060272217E1
1.308979959E0,6.284779310E-2,5.805939063E-2,1.007599831E1
1.310977823E0,1.681926697E-1,2.112883031E-1,9.736021042E0
1.312975688E0,1.107318252E-1,2.591723204E-1,9.702502251E0
1.314973552E0,1.059434265E-1,2.304419130E-1,9.841365814E0
1.316971417E0,1.011550203E-1,3.022679687E-1,9.721655846E0
1.318969282E0,7.721300423E-2,3.693056107E-1,9.587580681E0
1.320967146E0,-4.249707982E-2,2.064998895E-1,9.645041466E0
1.322965011E0,-1.765723825E-1,1.496376097E-2,1.004247856E1
1.324962875E0,-9.038111567E-2,1.298854351E-1,9.601945877E0
1.326960740E0,-5.207388848E-2,2.352303118E-1,9.506177902E0
1.328958605E0,-8.978256024E-3,2.495955229E-1,9.266757965E0
1.330956521E0,-1.334767491E-1,1.107318252E-1,9.515754700E0
1.332954490E0,-1.095347255E-1,2.495955229E-1,9.601945877E0
1.334952511E0,6.284779310E-2,2.879027426E-1,9.721655846E0
1.336950584E0,2.932897024E-2,1.017535757E-2,1.033936024E1
1.338948657E0,4.848258570E-2,-4.189853091E-3,1.021965027E1
1.340946730E0,7.721300423E-2,3.453635871E-1,9.736021042E0
1.342944802E0,2.454056777E-2,4.794389009E-1,9.003395081E0
1.344942875E0,-1.376665942E-2,4.219780564E-1,9.630676270E0
1.346940948E0,-4.189853091E-3,4.124012291E-1,1.007599831E1
1.348939021E0,5.386953708E-3,4.938040972E-1,1.005684471E1
1.350937042E0,-4.249707982E-2,5.225345492E-1,9.654618263E0
1.352935063E0,5.386953708E-3,6.853402257E-1,9.692925453E0
1.354933084E0,-5.207388848E-2,7.906851172E-1,9.319430351E0
1.356931105E0,-7.601590455E-2,5.943605900E-1,9.233239174E0
1.358929125E0,-1.334767491E-1,3.453635871E-1,1.026753426E1
1.360927146E0,5.386953708E-3,3.453635871E-1,1.006163311E1
1.362925063E0,-3.770867735E-2,5.560533404E-1,9.525331497E0
1.364922927E0,-7.122749835E-2,5.321113467E-1,9.348160744E0
1.366920792E0,-4.728548229E-2,4.650736749E-1,9.558850288E0
1.368918657E0,-1.622071713E-1,1.634042710E-1,9.932345390E0
1.370916521E0,-8.559270948E-2,5.805939063E-2,1.043512821E1
1.372914386E0,5.985504249E-4,4.363432527E-1,9.530119896E0
1.374912250E0,-1.095347255E-1,5.560533404E-1,8.998606682E0
1.376910115E0,-5.207388848E-2,2.400187254E-1,9.463082314E0
1.378907980E0,-7.122749835E-2,9.636662155E-2,1.017655468E1
1.380905844E0,-5.207388848E-2,3.214215636E-1,9.903614998E0
1.382903709E0,-6.643909961E-2,3.453635871E-1,9.664195061E0
1.384901573E0,-8.978256024E-3,2.208651006E-1,1.008557510E1
1.386899438E0,8.678980917E-2,4.554968774E-1,9.917980194E0
1.388897302E0,7.242459804E-2,6.135141850E-1,9.396044731E0
1.390895167E0,1.059434265E-1,4.554968774E-1,9.640253067E0
1.392893032E0,1.969230920E-1,4.554968774E-1,9.836577415E0
1.394890896E0,1.059434265E-1,5.033808947E-1,9.573215485E0
1.396888761E0,-3.770867735E-2,4.124012291E-1,9.965864182E0
1.398886625E0,-1.622071713E-1,2.687491477E-1,1.006642151E1
1.400884490E0,-4.189853091E-3,3.214215636E-1,9.908403397E0
1.402882355E0,5.327098817E-2,4.698620737E-1,9.530119896E0
1.404880219E0,-2.334346622E-2,3.645172119E-1,9.333795547E0
1.406878084E0,-8.559270948E-2,1.777694821E-1,9.879673004E0
1.408875948E0,1.496376097E-2,1.298854351E-1,1.036809063E1
1.410873813E0,1.017535757E-2,4.985924959E-1,9.731232643E0
1.412871677E0,-1.143231317E-1,6.183025837E-1,8.735244751E0
1.414869542E0,-1.382651478E-1,2.687491477E-1,9.688137054E0
1.416867407E0,-1.622071713E-1,2.017114908E-1,1.003290176E1
1.418865271E0,-1.382651478E-1,3.788824081E-1,9.874884605E0
1.420863136E0,-8.080431074E-2,3.357867897E-1,9.807847023E0
1.422861000E0,-5.686229095E-2,3.645172119E-1,9.774328232E0
1.424858865E0,-4.249707982E-2,5.847837925E-1,9.329007149E0
1.426856365E0,-1.191115379E-1,6.422445774E-1,9.056067467E0
1.428853865E0,-5.686229095E-2,4.698620737E-1,9.807847023E0
1.430851365E0,1.011550203E-1,4.171896577E-1,1.014303589E1
1.432848865E0,1.496376097E-2,6.087257862E-1,9.917980194E0
1.434846365E0,-1.238999367E-1,4.315548539E-1,9.745597839E0
1.436843865E0,6.284779310E-2,4.028244317E-1,1.028189945E1
1.438841417E0,1.017535757E-2,6.757634282E-1,9.587580681E0
1.440839021E0,8.678980917E-2,7.715315223E-1,9.252392769E0
1.442836677E0,7.242459804E-2,7.906851172E-1,9.487024307E0
1.444834386E0,4.848258570E-2,7.236474752E-1,9.568427086E0
1.446832146E0,9.157821536E-2,5.368997455E-1,1.011430550E1
1.448829959E0,1.155202314E-1,6.183025837E-1,1.040160942E1
1.450827823E0,1.538274586E-1,8.194155097E-1,9.510966301E0
1.452825740E0,5.327098817E-2,7.954735160E-1,9.127894402E0
1.454823709E0,2.454056777E-2,6.278793812E-1,1.010472870E1
1.456821730E0,3.411737457E-2,5.368997455E-1,9.745597839E0
1.458819802E0,5.805939063E-2,6.230909824E-1,9.621099472E0
1.460817927E0,1.298854351E-1,6.374561787E-1,9.601945877E0
1.462816052E0,1.873462796E-1,5.273229480E-1,9.621099472E0
1.464814177E0,7.242459804E-2,4.363432527E-1,9.673771858E0
1.466812302E0,4.369417951E-2,4.746504724E-1,1.027711105E1
1.468810427E0,7.242459804E-2,6.230909824E-1,9.391256332E0
1.470808552E0,9.636662155E-2,4.459200799E-1,9.338583946E0
1.472806365E0,8.200141042E-2,4.219780564E-1,1.004726696E1
1.474804073E0,1.777694821E-1,5.033808947E-1,9.525331497E0
1.476801782E0,1.394622475E-1,2.448071241E-1,9.764751434E0
1.478799490E0,1.298854351E-1,2.974795699E-1,1.024359226E1
1.480797198E0,4.369417951E-2,3.214215636E-1,9.530119896E0
1.482794907E0,5.327098817E-2,2.543839216E-1,9.597157478E0
1.484792615E0,1.975216344E-2,3.884592354E-1,9.841365814E0
1.486790375E0,-8.978256024E-3,5.560533404E-1,9.477447510E0
1.488788188E0,1.496376097E-2,4.746504724E-1,9.827000618E0
1.490786052E0,6.284779310E-2,4.363432527E-1,1.001853657E1
1.492784021E0,8.678980917E-2,7.140706778E-1,9.343372345E0
1.494782094E0,-6.165069342E-2,4.794389009E-1,9.362525940E0
1.496780219E0,-1.238999367E-1,4.028244317E-1,1.011909389E1
1.498778396E0,-6.165069342E-2,4.650736749E-1,9.731232643E0
1.500776625E0,-1.855506375E-2,4.650736749E-1,9.352949142E0
1.502774907E0,-3.770867735E-2,4.171896577E-1,9.716867447E0
1.504773240E0,5.985504249E-4,5.656301379E-1,9.850942612E0
1.506771573E0,5.985504249E-4,6.183025837E-1,9.654618263E0
1.508769907E0,-2.334346622E-2,3.836708367E-1,9.807847023E0
1.510768240E0,-4.249707982E-2,2.112883031E-1,1.055483818E1
1.512766573E0,-7.122749835E-2,3.214215636E-1,1.012388229E1
1.514764855E0,-1.238999367E-1,6.230909824E-1,9.333795547E0
1.516762771E0,-2.100912035E-1,7.044938207E-1,8.965087891E0
1.518760636E0,-8.080431074E-2,6.087257862E-1,8.969876289E0
1.520758500E0,-8.559270948E-2,3.357867897E-1,9.779116631E0
1.522756365E0,-1.957259923E-1,2.304419130E-1,1.069849014E1
1.524754230E0,-1.334767491E-1,4.554968774E-1,1.023401546E1
1.526752094E0,-1.430535465E-1,6.230909824E-1,9.329007149E0
1.528749959E0,-8.080431074E-2,5.895721912E-1,9.113529205E0
1.530747823E0,-3.770867735E-2,3.884592354E-1,9.630676270E0
1.532745688E0,-5.686229095E-2,1.586158574E-1,9.937133789E0
1.534743605E0,-6.165069342E-2,1.634042710E-1,1.022922707E1
1.536741573E0,-1.376665942E-2,4.985924959E-1,9.659406662E0
1.538739594E0,1.017535757E-2,4.890156984E-1,9.415198326E0
1.540737667E0,-6.165069342E-2,2.687491477E-1,9.549273491E0
1.542735792E0,5.386953708E-3,2.543839216E-1,9.917980194E0
1.544733969E0,1.975216344E-2,1.873462796E-1,1.029626465E1
1.546732198E0,1.496376097E-2,2.017114908E-1,9.884461403E0
1.548730427E0,8.200141042E-2,4.315548539E-1,9.697713852E0
1.550728657E0,1.203086376E-1,6.230909824E-1,9.108740807E0
1.552726886E0,1.496376097E-2,6.135141850E-1,9.185355186E0
1.554725063E0,1.586158574E-1,4.363432527E-1,9.611522675E0
1.556722771E0,1.346738487E-1,1.346738487E-1,1.035372543E1
1.558720480E0,1.107318252E-1,2.454056777E-2,1.049737740E1
1.560718188E0,1.873462796E-1,2.974795699E-1,1.005205631E1
1.562715896E0,2.208651006E-1,5.512649417E-1,9.118317604E0
1.564713605E0,6.763619930E-2,5.033808947E-1,8.931569099E0
1.566711313E0,7.242459804E-2,4.219780564E-1,9.515754700E0
1.568709021E0,6.763619930E-2,3.214215636E-1,9.894038200E0
1.570706730E0,5.386953708E-3,1.250970364E-1,9.870096207E0
1.572704438E0,7.242459804E-2,2.208651006E-1,1.022443867E1
1.574702146E0,-4.249707982E-2,3.357867897E-1,9.750386238E0
1.576699907E0,-8.978256024E-3,3.262099922E-1,9.673771858E0
1.578697719E0,2.454056777E-2,2.208651006E-1,1.015261269E1
1.580695584E0,5.805939063E-2,3.788824081E-1,9.865307808E0
1.582693500E0,-4.249707982E-2,4.315548539E-1,9.108740807E0
1.584691469E0,-5.686229095E-2,1.777694821E-1,9.937133789E0
1.586689490E0,-1.622071713E-1,2.783259451E-1,1.012388229E1
1.588687563E0,-1.191115379E-1,5.464765429E-1,9.209297180E0
1.590685688E0,-1.382651478E-1,4.746504724E-1,9.506177902E0
1.592683813E0,-2.100912035E-1,3.884592354E-1,9.554061890E0
1.594681938E0,-1.191115379E-1,1.921346933E-1,9.898826599E0
1.596680063E0,5.386953708E-3,2.974795699E-1,1.048301220E1
1.598678188E0,-1.526303589E-1,6.374561787E-1,9.348160744E0
1.600676365E0,-1.526303589E-1,4.890156984E-1,9.089587212E0
1.602674594E0,-1.622071713E-1,2.735375464E-1,9.491812706E0
1.604672875E0,-1.574187577E-1,2.591723204E-1,1.002332497E1
1.606671157E0,-4.728548229E-2,1.538274586E-1,9.894038200E0
1.608669438E0,-9.995792061E-2,1.346738487E-1,1.007599831E1
1.610667719E0,-8.978256024E-3,2.783259451E-1,9.731232643E0
1.612665584E0,6.284779310E-2,3.166331649E-1,9.482235909E0
1.614663448E0,-5.686229095E-2,3.118447661E-1,9.534908295E0
1.616661313E0,-6.165069342E-2,2.639607489E-1,9.865307808E0
1.618659125E0,-6.643909961E-2,1.442506462E-1,9.530119896E0
1.620656938E0,5.386953708E-3,2.454056777E-2,9.841365814E0
1.622654750E0,8.678980917E-2,7.721300423E-2,9.975440979E0
1.624652563E0,1.011550203E-1,3.118447661E-1,9.439140320E0
1.626650375E0,1.394622475E-1,3.501519859E-1,9.003395081E0
1.628648188E0,1.825578809E-1,5.327098817E-2,9.721655846E0
1.630646000E0,2.208651006E-1,-8.559270948E-2,1.053089619E1
1.632643813E0,1.921346933E-1,3.118447661E-1,9.597157478E0
1.634641677E0,2.400187254E-1,2.112883031E-1,9.405621529E0
1.636639542E0,1.921346933E-1,-3.292027488E-2,1.005684471E1
1.638637407E0,2.495955229E-1,-2.813187055E-2,1.011909389E1
1.640635271E0,2.495955229E-1,1.634042710E-1,9.860519409E0
1.642633136E0,2.926911712E-1,2.352303118E-1,9.812635422E0
1.644631052E0,3.022679687E-1,3.262099922E-1,9.506177902E0
1.646629021E0,2.687491477E-1,2.256535143E-1,9.721655846E0
1.648626990E0,2.400187254E-1,2.926911712E-1,9.487024307E0
1.650624959E0,2.448071241E-1,3.118447661E-1,9.338583946E0
1.652622927E0,2.831143439E-1,1.729810685E-1,9.573215485E0
1.654620896E0,2.974795699E-1,9.157821536E-2,1.025795746E1
1.656618865E0,2.304419130E-1,3.597288132E-1,9.716867447E0
1.658616834E0,1.394622475E-1,3.022679687E-1,9.563638687E0
1.660614802E0,1.825578809E-1,2.639607489E-1,1.015740108E1
1.662612771E0,7.721300423E-2,3.118447661E-1,9.836577415E0
1.664610636E0,5.327098817E-2,3.645172119E-1,9.678560257E0
1.666608500E0,1.298854351E-1,3.693056107E-1,9.822212219E0
1.668606365E0,1.681926697E-1,6.853402257E-1,9.606734276E0
1.670604230E0,6.763619930E-2,1.293467522E0,8.045714378E0
1.672602094E0,-8.080431074E-2,-2.388216257E-1,7.653065681E0
1.674599959E0,-2.813187055E-2,-1.775899053E0,1.564012241E1
1.676597823E0,4.848258570E-2,1.777694821E-1,1.077989292E1
1.678595480E0,4.369417951E-2,1.298255920E0,7.078457355E0
1.680593136E0,-5.686229095E-2,1.077989340E0,8.117541313E0
1.682590792E0,-8.080431074E-2,4.459200799E-1,8.955511093E0
1.684588448E0,2.932897024E-2,-1.765723825E-1,1.040639782E1
1.686586105E0,-6.165069342E-2,-2.531868219E-1,1.128267574E1
1.688583761E0,-6.165069342E-2,3.693056107E-1,9.788693428E0
1.690581417E0,-7.122749835E-2,5.991489887E-1,8.400056839E0
1.692579073E0,-5.207388848E-2,1.586158574E-1,9.563638687E0
1.694576730E0,-9.516951442E-2,6.763619930E-2,1.052610779E1
1.696574386E0,-2.334346622E-2,1.729810685E-1,9.774328232E0
1.698572042E0,4.848258570E-2,1.107318252E-1,9.424775124E0
1.700569698E0,1.346738487E-1,-8.080431074E-2,1.016697788E1
1.702567355E0,1.346738487E-1,-1.047463268E-1,9.879673004E0
1.704565011E0,1.681926697E-1,-8.978256024E-3,9.434351921E0
1.706562667E0,2.448071241E-1,2.400187254E-1,9.170989990E0
1.708560323E0,1.729810685E-1,1.059434265E-1,9.022548676E0
1.710557980E0,2.495955229E-1,-4.734533727E-1,1.028189945E1
1.712555688E0,1.873462796E-1,-4.016273320E-1,1.092833328E1
1.714553448E0,1.346738487E-1,-4.249707982E-2,9.415198326E0
1.716551209E0,2.735375464E-1,3.411737457E-2,9.343372345E0
1.718548969E0,1.490390599E-1,-9.038111567E-2,1.034893703E1
1.720546730E0,1.681926697E-1,-1.430535465E-1,9.592369080E0
1.722544490E0,1.442506462E-1,-1.143231317E-1,9.870096207E0
1.724542250E0,1.107318252E-1,1.777694821E-1,9.506177902E0
1.726540011E0,9.157821536E-2,-3.770867735E-2,9.319430351E0
1.728537771E0,1.250970364E-1,-1.334767491E-1,1.009036350E1
1.730535532E0,2.112883031E-1,2.208651006E-1,9.544485092E0
1.732533292E0,1.681926697E-1,3.693056107E-1,9.223662376E0
1.734531052E0,1.394622475E-1,1.969230920E-1,9.625887871E0
1.736528813E0,5.805939063E-2,1.011550203E-1,9.501389503E0
1.738526573E0,1.586158574E-1,5.386953708E-3,9.980229378E0
1.740524334E0,1.442506462E-1,-2.867056429E-1,1.020049667E1
1.742522094E0,3.118447661E-1,1.975216344E-2,1.002811337E1
1.744519855E0,2.687491477E-1,8.200141042E-2,9.496601105E0
1.746517667E0,1.250970364E-1,5.327098817E-2,9.472659111E0
1.748515532E0,1.250970364E-1,1.873462796E-1,9.510966301E0
1.750513448E0,2.687491477E-1,5.985504249E-4,9.822212219E0
1.752511417E0,1.969230920E-1,-2.813187055E-2,9.894038200E0
1.754509438E0,2.160767019E-1,2.112883031E-1,9.985017776E0
1.756507511E0,2.831143439E-1,1.059434265E-1,9.453505516E0
1.758505636E0,1.490390599E-1,-8.559270948E-2,1.019091988E1
1.760503813E0,1.729810685E-1,-1.376665942E-2,1.047822380E1
1.762502042E0,1.442506462E-1,5.386953708E-3,9.793481827E0
1.764500271E0,5.985504249E-4,2.304419130E-1,9.692925453E0
1.766498500E0,-8.978256024E-3,5.368997455E-1,9.089587212E0
1.768496730E0,6.284779310E-2,1.203086376E-1,9.170989990E0
1.770494959E0,4.848258570E-2,4.848258570E-2,1.051174259E1
1.772492927E0,-1.191115379E-1,3.405751884E-1,9.707290649E0
1.774490896E0,-1.813607812E-1,6.039373875E-1,9.314641953E0
1.776488865E0,-2.334346622E-2,4.698620737E-1,9.166201591E0
1.778486834E0,-9.038111567E-2,1.586158574E-1,1.008557510E1
1.780484802E0,-1.143231317E-1,1.586158574E-1,1.010951710E1
1.782482771E0,-2.627636492E-1,3.597288132E-1,9.568427086E0
1.784480740E0,-2.723404467E-1,4.985924959E-1,9.132682800E0
1.786478709E0,-2.627636492E-1,4.028244317E-1,9.295488358E0
1.788476677E0,-3.537433147E-1,2.160767019E-1,1.016218948E1
1.790474646E0,-3.681085110E-1,7.242459804E-2,9.793481827E0
1.792472615E0,-2.005143911E-1,-1.430535465E-1,1.034414864E1
1.794470584E0,-2.148796022E-1,8.200141042E-2,1.031062984E1
1.796468552E0,-2.819172442E-1,3.693056107E-1,9.161413193E0
1.798466313E0,-1.286883354E-1,1.203086376E-1,9.544485092E0
1.800464073E0,-9.038111567E-2,8.678980917E-2,1.005684471E1
1.802461782E0,-2.340332121E-1,2.256535143E-1,9.563638687E0
1.804459490E0,-1.191115379E-1,3.693056107E-1,9.247604370E0
1.806457198E0,1.975216344E-2,3.166331649E-1,9.712079048E0
1.808454907E0,3.890577704E-2,1.975216344E-2,1.046864700E1
1.810452615E0,6.284779310E-2,-4.189853091E-3,1.040160942E1
1.812450323E0,4.848258570E-2,3.166331649E-1,9.549273491E0
1.814448032E0,-1.376665942E-2,3.022679687E-1,9.333795547E0
1.816445740E0,-2.813187055E-2,2.926911712E-1,9.214085579E0
1.818443448E0,5.327098817E-2,2.400187254E-1,9.381679535E0
1.820441157E0,1.490390599E-1,1.825578809E-1,9.788693428E0
1.822438865E0,1.975216344E-2,1.825578809E-1,9.697713852E0
1.824436573E0,1.442506462E-1,1.059434265E-1,9.941922188E0
1.826434282E0,9.636662155E-2,2.687491477E-1,9.668983459E0
1.828431990E0,9.636662155E-2,2.639607489E-1,9.352949142E0
1.830429750E0,1.729810685E-1,1.394622475E-1,9.879673004E0
1.832427563E0,1.777694821E-1,6.284779310E-2,1.004726696E1
1.834425427E0,8.200141042E-2,1.017535757E-2,9.922768593E0
1.836423344E0,1.729810685E-1,8.200141042E-2,1.016697788E1
1.838421313E0,1.203086376E-1,2.591723204E-1,9.510966301E0
1.840419282E0,1.394622475E-1,4.369417951E-2,9.324218750E0
1.842417250E0,1.921346933E-1,-9.038111567E-2,1.035851383E1
1.844415219E0,8.678980917E-2,8.200141042E-2,9.640253067E0
1.846413188E0,1.681926697E-1,1.203086376E-1,9.683348656E0
1.848411157E0,1.729810685E-1,1.442506462E-1,9.750386238E0
1.850409125E0,1.155202314E-1,3.411737457E-2,9.625887871E0
1.852407094E0,1.298854351E-1,-8.080431074E-2,1.021965027E1
1.854404802E0,9.636662155E-2,1.496376097E-2,9.621099472E0
1.856402459E0,2.932897024E-2,2.256535143E-1,9.611522675E0
1.858400115E0,-6.165069342E-2,5.321113467E-1,9.190143585E0
1.860397771E0,-3.292027488E-2,3.405751884E-1,9.118317604E0
1.862395427E0,5.805939063E-2,-7.122749835E-2,1.055962658E1
1.864393084E0,-1.376665942E-2,1.681926697E-1,1.029147625E1
1.866390740E0,-1.574187577E-1,5.752069354E-1,8.936357498E0
1.868388396E0,-2.292448133E-1,4.363432527E-1,9.228450775E0
1.870386052E0,-1.622071713E-1,3.740940094E-1,9.496601105E0
1.872383709E0,-2.914940715E-1,1.442506462E-1,9.659406662E0
1.874381365E0,-1.909375787E-1,4.369417951E-2,1.043033981E1
1.876379021E0,-2.579752207E-1,1.921346933E-1,9.965864182E0
1.878376730E0,-3.154360652E-1,2.974795699E-1,9.592369080E0
1.880374490E0,-3.154360652E-1,4.171896577E-1,9.544485092E0
1.882372302E0,-2.292448133E-1,3.740940094E-1,9.635464668E0
1.884370167E0,-2.627636492E-1,2.112883031E-1,1.027711105E1
1.886368084E0,-1.813607812E-1,3.693056107E-1,9.927556992E0
1.888366052E0,-1.717839688E-1,6.230909824E-1,9.290699959E0
1.890364073E0,-1.478419602E-1,5.225345492E-1,8.984241486E0
1.892362094E0,-1.191115379E-1,3.549404144E-1,9.396044731E0
1.894360115E0,-1.047463268E-1,3.070563674E-1,9.774328232E0
1.896358136E0,-1.855506375E-2,2.543839216E-1,1.005205631E1
1.898356157E0,-2.813187055E-2,2.454056777E-2,1.003290176E1
1.900354177E0,-2.334346622E-2,2.017114908E-1,1.020528507E1
1.902352198E0,3.890577704E-2,5.273229480E-1,9.338583946E0
1.904350219E0,5.386953708E-3,4.554968774E-1,8.989029884E0
1.906348240E0,4.848258570E-2,5.327098817E-2,1.021965027E1
1.908346261E0,3.411737457E-2,-8.978256024E-3,1.062187576E1
1.910344282E0,2.932897024E-2,1.250970364E-1,9.841365814E0
1.912342302E0,4.848258570E-2,5.177460909E-1,8.840589523E0
1.914340323E0,4.369417951E-2,4.028244317E-1,8.807070732E0
1.916338344E0,9.157821536E-2,3.890577704E-2,9.870096207E0
1.918336365E0,2.448071241E-1,-1.286883354E-1,1.009515190E1
1.920334386E0,1.873462796E-1,-9.995792061E-2,1.022922707E1
1.922332407E0,1.777694821E-1,2.495955229E-1,9.386467934E0
1.924330427E0,3.980360329E-1,-8.978256024E-3,9.712079048E0
1.926328448E0,3.836708367E-1,-9.038111567E-2,1.013345909E1
1.928326469E0,3.501519859E-1,-2.292448133E-1,9.630676270E0
1.930324490E0,3.309983909E-1,-2.483984232E-1,1.025316906E1
1.932322511E0,2.735375464E-1,-4.249707982E-2,9.501389503E0
1.934320480E0,3.740940094E-1,-5.686229095E-2,9.285911560E0
1.936318188E0,2.639607489E-1,-2.771288455E-1,9.937133789E0
1.938315896E0,3.022679687E-1,-8.559270948E-2,9.726444244E0
1.940313605E0,2.543839216E-1,5.805939063E-2,9.285911560E0
1.942311313E0,1.825578809E-1,-1.191115379E-1,9.568427086E0
1.944309021E0,2.112883031E-1,-2.914940715E-1,1.009036350E1
1.946306730E0,3.166331649E-1,-1.861491799E-1,1.075116253E1
1.948304438E0,2.352303118E-1,-4.728548229E-2,9.779116631E0
1.950302146E0,3.357867897E-1,1.921346933E-1,9.870096207E0
1.952299855E0,2.017114908E-1,3.932476342E-1,8.692149162E0
1.954297563E0,1.729810685E-1,3.740940094E-1,8.270770073E0
1.956295271E0,1.634042710E-1,1.777694821E-1,9.721655846E0
1.958292980E0,1.346738487E-1,-2.388216257E-1,1.089960289E1
1.960290688E0,2.160767019E-1,-5.686229095E-2,1.086608410E1
1.962288396E0,1.921346933E-1,2.639607489E-1,9.606734276E0
1.964286157E0,5.805939063E-2,2.926911712E-1,9.396044731E0
1.966283917E0,9.157821536E-2,2.256535143E-1,9.692925453E0
1.968281730E0,1.155202314E-1,1.729810685E-1,9.501389503E0
1.970279594E0,4.369417951E-2,2.112883031E-1,9.841365814E0
1.972277511E0,2.454056777E-2,8.678980917E-2,1.001853657E1
1.974275480E0,-8.080431074E-2,-3.292027488E-2,9.783905029E0
1.976273500E0,-1.334767491E-1,7.242459804E-2,9.558850288E0
1.978271573E0,-7.122749835E-2,-8.978256024E-3,9.223662376E0
1.980269698E0,-1.143231317E-1,-7.601590455E-2,9.985017776E0
1.982267875E0,-1.047463268E-1,-7.601590455E-2,9.803058624E0
1.984266105E0,-1.574187577E-1,-6.643909961E-2,9.716867447E0
1.986264334E0,-2.196680009E-1,-2.813187055E-2,9.458293915E0
1.988262563E0,-1.909375787E-1,6.763619930E-2,9.539696693E0
1.990260792E0,-1.191115379E-1,-4.189853091E-3,9.654618263E0
1.992259021E0,-1.238999367E-1,3.890577704E-2,9.539696693E0
1.994257250E0,-1.095347255E-1,2.454056777E-2,9.443928719E0
1.996255271E0,-2.813187055E-2,4.369417951E-2,9.970652580E0
1.998253084E0,8.200141042E-2,-3.770867735E-2,9.793481827E0
2.000250896E0,1.059434265E-1,-1.286883354E-1,1.041597462E1
2.002248709E0,-4.189853091E-3,9.636662155E-2,9.855731010E0
2.004246521E0,4.369417951E-2,2.831143439E-1,9.137471199E0
2.006244334E0,9.157821536E-2,5.805939063E-2,9.587580681E0
2.008242146E0,1.490390599E-1,-2.334346622E-2,1.034414864E1
2.010239959E0,2.256535143E-1,2.735375464E-1,9.601945877E0
2.012237771E0,1.729810685E-1,1.729810685E-1,9.429563522E0
2.014235584E0,1.490390599E-1,1.490390599E-1,9.965864182E0
2.016233396E0,1.825578809E-1,4.602852762E-1,9.214085579E0
2.018231209E0,1.873462796E-1,3.932476342E-1,9.372102737E0
2.020229021E0,1.777694821E-1,1.017535757E-2,1.071285534E1
2.022226834E0,1.490390599E-1,2.208651006E-1,1.023880386E1
2.024224646E0,1.346738487E-1,5.416881442E-1,9.132682800E0
2.026222459E0,1.250970364E-1,4.171896577E-1,9.472659111E0
2.028220271E0,2.448071241E-1,1.825578809E-1,1.028189945E1
2.030218084E0,2.448071241E-1,1.777694821E-1,1.010472870E1
2.032215896E0,1.777694821E-1,1.873462796E-1,9.774328232E0
2.034213709E0,1.538274586E-1,3.884592354E-1,9.309853554E0
2.036211521E0,2.974795699E-1,4.267664552E-1,9.487024307E0
2.038209386E0,2.304419130E-1,3.166331649E-1,9.740809441E0
2.040207250E0,1.155202314E-1,4.363432527E-1,9.836577415E0
2.042205167E0,6.284779310E-2,3.836708367E-1,9.453505516E0
2.044203084E0,1.155202314E-1,1.203086376E-1,1.050216579E1
2.046201000E0,1.969230920E-1,4.028244317E-1,9.889249802E0
2.048198917E0,1.490390599E-1,6.230909824E-1,8.888473511E0
2.050196834E0,8.200141042E-2,5.129576921E-1,9.266757965E0
2.052194750E0,7.242459804E-2,2.400187254E-1,9.779116631E0
2.054192667E0,9.636662155E-2,8.678980917E-2,1.006163311E1
2.056190584E0,8.678980917E-2,4.848258570E-2,1.022922707E1
2.058188344E0,1.496376097E-2,2.879027426E-1,9.640253067E0
2.060186052E0,-4.249707982E-2,6.518214345E-1,8.639476776E0
2.062183552E0,-7.122749835E-2,-2.483984232E-1,9.712079048E0
2.064181052E0,-3.770867735E-2,-1.172560334E0,1.255160236E1
2.066178552E0,-2.334346622E-2,3.411737457E-2,1.062187576E1
2.068176052E0,-1.574187577E-1,1.111508131E0,7.006631374E0
2.070173552E0,-1.286883354E-1,8.960300088E-1,8.084021568E0
2.072171105E0,-2.196680009E-1,1.298854351E-1,9.601945877E0
2.074168709E0,-2.196680009E-1,-6.218938828E-1,1.179982281E1
2.076166365E0,-1.430535465E-1,-4.495113790E-1,1.131619453E1
2.078164073E0,-1.191115379E-1,3.405751884E-1,8.974664688E0
2.080161834E0,-1.478419602E-1,5.081692934E-1,8.055291176E0
2.082159646E0,-8.559270948E-2,1.975216344E-2,9.357737541E0
2.084157511E0,-9.516951442E-2,-2.723404467E-1,1.048780060E1
2.086155427E0,-1.957259923E-1,-2.005143911E-1,9.999382973E0
2.088153396E0,-1.095347255E-1,-1.430535465E-1,1.023880386E1
2.090151417E0,-5.207388848E-2,-9.516951442E-2,9.917980194E0
2.092149490E0,-1.855506375E-2,-1.765723825E-1,9.956287384E0
2.094147563E0,5.985504249E-4,-1.430535465E-1,9.965864182E0
2.096145636E0,3.411737457E-2,-9.995792061E-2,9.089587212E0
2.098143709E0,1.490390599E-1,-2.244564146E-1,9.530119896E0
2.100141782E0,1.873462796E-1,-2.579752207E-1,9.879673004E0
2.102139855E0,2.591723204E-1,-8.559270948E-2,9.180566788E0
2.104137927E0,2.304419130E-1,8.200141042E-2,9.032125473E0
2.106135948E0,2.400187254E-1,5.985504249E-4,9.242815971E0
2.108133605E0,2.831143439E-1,-3.154360652E-1,1.077510452E1
2.110131261E0,2.831143439E-1,-2.005143911E-1,9.970652580E0
2.112128917E0,2.400187254E-1,-1.478419602E-1,9.606734276E0
2.114126573E0,2.735375464E-1,-1.143231317E-1,9.865307808E0
2.116124230E0,2.735375464E-1,-1.717839688E-1,1.009994030E1
2.118121886E0,2.926911712E-1,-8.080431074E-2,9.664195061E0
2.120119542E0,2.926911712E-1,-2.292448133E-1,9.884461403E0
2.122117198E0,3.118447661E-1,-1.286883354E-1,9.831789017E0
2.124114855E0,3.166331649E-1,-3.292027488E-2,9.228450775E0
2.126112511E0,3.262099922E-1,-1.238999367E-1,9.520543098E0
2.128110219E0,3.070563674E-1,-1.861491799E-1,1.000895977E1
2.130107980E0,3.070563674E-1,-8.080431074E-2,9.898826599E0
2.132105792E0,2.495955229E-1,-5.686229095E-2,9.467870712E0
2.134103657E0,2.974795699E-1,-5.686229095E-2,9.951498985E0
2.136101573E0,3.357867897E-1,-4.728548229E-2,9.745597839E0
2.138099542E0,3.501519859E-1,8.200141042E-2,9.625887871E0
2.140097563E0,2.879027426E-1,1.921346933E-1,9.367314339E0
2.142095584E0,2.256535143E-1,1.634042710E-1,9.415198326E0
2.144093605E0,2.112883031E-1,1.975216344E-2,1.006642151E1
2.146091625E0,1.873462796E-1,9.157821536E-2,1.009994030E1
2.148089646E0,1.155202314E-1,1.969230920E-1,9.865307808E0
2.150087667E0,8.200141042E-2,3.645172119E-1,9.534908295E0
2.152085688E0,2.932897024E-2,3.070563674E-1,9.218873978E0
2.154083709E0,-3.770867735E-2,1.250970364E-1,1.020049667E1
2.156081730E0,-8.559270948E-2,6.422445774E-1,1.003769016E1
2.158079750E0,-1.813607812E-1,1.245583415E0,8.692149162E0
2.160077771E0,-2.723404467E-1,1.240795016E0,8.625111580E0
2.162075792E0,-3.010708690E-1,7.811083198E-1,1.032020664E1
2.164073813E0,-3.345896900E-1,8.577227592E-1,1.135450172E1
2.166071834E0,-3.441664875E-1,1.197699428E0,9.539696693E0
2.168069855E0,-2.914940715E-1,1.480215192E0,9.127894402E0
2.170067875E0,-3.872621357E-1,1.575983286E0,8.936357498E0
2.172065896E0,-4.207809567E-1,1.537676096E0,9.266757965E0
2.174063865E0,-4.303577542E-1,1.207276225E0,9.956287384E0
2.176061834E0,-4.590881765E-1,1.106719732E0,1.070327854E1
2.178059802E0,-4.112041295E-1,1.159392118E0,9.980229378E0
2.180057771E0,-3.345896900E-1,1.082777739E0,1.000417137E1
2.182055740E0,-3.154360652E-1,1.164180517E0,1.003290176E1
2.184053709E0,-2.340332121E-1,1.346139908E0,9.056067467E0
2.186051677E0,-2.771288455E-1,9.917980433E-1,9.410409927E0
2.188049646E0,-2.914940715E-1,8.002619147E-1,1.007120991E1
2.190047615E0,-2.771288455E-1,7.428010702E-1,9.568427086E0
2.192045584E0,-3.537433147E-1,5.991489887E-1,9.965864182E0
2.194043552E0,-3.824737072E-1,5.512649417E-1,9.491812706E0
2.196041521E0,-3.106476665E-1,6.278793812E-1,9.649829865E0
2.198039490E0,-2.914940715E-1,4.602852762E-1,9.649829865E0
2.200037459E0,-2.196680009E-1,1.921346933E-1,1.001853657E1
2.202035427E0,-1.430535465E-1,1.538274586E-1,1.029626465E1
2.204033396E0,-1.382651478E-1,3.405751884E-1,9.578003883E0
2.206031365E0,-4.728548229E-2,3.549404144E-1,9.257181168E0
2.208029334E0,1.975216344E-2,1.921346933E-1,9.405621529E0
2.210027302E0,-1.855506375E-2,2.256535143E-1,9.807847023E0
2.212025271E0,5.805939063E-2,4.315548539E-1,9.396044731E0
2.214023240E0,-4.189853091E-3,3.645172119E-1,9.783905029E0
2.216021209E0,-1.855506375E-2,1.203086376E-1,9.870096207E0
2.218019177E0,7.721300423E-2,1.873462796E-1,1.020049667E1
2.220017146E0,1.825578809E-1,3.740940094E-1,9.113529205E0
2.222015115E0,2.735375464E-1,9.636662155E-2,9.544485092E0
2.224013084E0,2.352303118E-1,9.157821536E-2,1.061708736E1
2.226011052E0,1.729810685E-1,3.932476342E-1,9.649829865E0
2.228009021E0,3.070563674E-1,4.028244317E-1,9.477447510E0
2.230006990E0,3.549404144E-1,3.693056107E-1,9.822212219E0
2.232004959E0,3.980360329E-1,3.214215636E-1,9.616311073E0
2.234002927E0,3.740940094E-1,1.825578809E-1,9.894038200E0
2.236000896E0,3.693056107E-1,3.453635871E-1,1.023401546E1
2.237998865E0,3.693056107E-1,3.166331649E-1,1.005205631E1
2.239996834E0,4.315548539E-1,9.157821536E-2,9.668983459E0
2.241994802E0,5.225345492E-1,1.011550203E-1,9.472659111E0
2.243992771E0,5.273229480E-1,2.495955229E-1,9.506177902E0
2.245990740E0,5.416881442E-1,1.873462796E-1,9.453505516E0
2.247988709E0,5.752069354E-1,-1.430535465E-1,9.405621529E0
2.249986677E0,6.278793812E-1,-1.095347255E-1,9.563638687E0
2.251984646E0,4.507084787E-1,1.490390599E-1,8.869319916E0
2.253982615E0,4.411316514E-1,1.394622475E-1,1.023401546E1
2.255980375E0,3.740940094E-1,-2.340332121E-1,1.071764374E1
2.257978136E0,3.693056107E-1,-4.207809567E-1,1.014782429E1
2.259975896E0,1.921346933E-1,2.454056777E-2,9.860519409E0
2.261973657E0,1.490390599E-1,4.267664552E-1,8.304288864E0
2.263971417E0,1.490390599E-1,3.693056107E-1,8.854954720E0
2.265969230E0,6.763619930E-2,4.848258570E-2,9.922768593E0
2.267967094E0,1.155202314E-1,-3.770867735E-2,1.066018295E1
2.269965011E0,8.678980917E-2,2.352303118E-1,9.994594574E0
2.271962980E0,5.985504249E-4,4.363432527E-1,9.515754700E0
2.273961000E0,-4.189853091E-3,4.938040972E-1,9.367314339E0
2.275959073E0,-4.728548229E-2,3.405751884E-1,9.879673004E0
2.277957146E0,-6.165069342E-2,5.177460909E-1,9.975440979E0
2.279955271E0,1.975216344E-2,6.709750295E-1,1.007120991E1
2.281953448E0,4.369417951E-2,4.890156984E-1,9.975440979E0
2.283951625E0,-3.292027488E-2,6.278793812E-1,9.841365814E0
2.285949802E0,-2.813187055E-2,7.140706778E-1,9.151836395E0
2.287947980E0,1.017535757E-2,6.470330358E-1,9.611522675E0
2.289946157E0,-2.813187055E-2,5.656301379E-1,9.726444244E0
2.291943969E0,-7.122749835E-2,5.560533404E-1,9.702502251E0
2.293941782E0,-1.669955701E-1,6.039373875E-1,9.300276756E0
2.295939594E0,-1.334767491E-1,2.783259451E-1,1.030105305E1
2.297937407E0,-7.601590455E-2,2.304419130E-1,1.036330223E1
2.299935219E0,-1.286883354E-1,4.698620737E-1,9.261969566E0
2.301933032E0,-1.717839688E-1,2.400187254E-1,9.194931984E0
2.303930844E0,-1.143231317E-1,5.985504249E-4,1.076552773E1
2.305928657E0,-1.382651478E-1,3.022679687E-1,9.712079048E0
2.307926469E0,-1.047463268E-1,4.219780564E-1,8.754398346E0
2.309924334E0,-4.249707982E-2,5.985504249E-4,1.016218948E1
2.311922250E0,-4.249707982E-2,-7.122749835E-2,1.033936024E1
2.313920219E0,5.985504249E-4,1.250970364E-1,9.515754700E0
2.315918188E0,-9.038111567E-2,1.394622475E-1,8.936357498E0
2.317916157E0,-8.978256024E-3,2.454056777E-2,9.487024307E0
2.319914125E0,3.411737457E-2,-2.388216257E-1,9.807847023E0
2.321912094E0,1.107318252E-1,-4.064157307E-1,1.072243214E1
2.323910063E0,1.975216344E-2,-3.292027488E-2,9.759963036E0
2.325907980E0,8.678980917E-2,1.777694821E-1,8.333019257E0
2.327905636E0,1.777694821E-1,1.538274586E-1,9.554061890E0
2.329903292E0,1.681926697E-1,8.678980917E-2,1.002332497E1
2.331900948E0,1.634042710E-1,1.017535757E-2,1.016697788E1
2.333898605E0,1.155202314E-1,-3.872621357E-1,1.108156300E1
2.335896261E0,7.242459804E-2,-1.095347255E-1,8.917203903E0
2.337893917E0,1.634042710E-1,-1.430535465E-1,9.980229378E0
2.339891573E0,2.256535143E-1,5.985504249E-4,9.419986725E0
2.341889282E0,2.879027426E-1,3.890577704E-2,9.568427086E0
2.343887042E0,3.118447661E-1,7.242459804E-2,9.568427086E0
2.345884855E0,3.262099922E-1,4.369417951E-2,9.534908295E0
2.347882719E0,3.118447661E-1,8.200141042E-2,9.400833130E0
2.349880636E0,3.405751884E-1,1.346738487E-1,9.439140320E0
2.351878605E0,3.262099922E-1,-1.047463268E-1,1.001853657E1
2.353876625E0,2.926911712E-1,-2.723404467E-1,1.018134308E1
2.355874646E0,3.166331649E-1,-1.622071713E-1,9.970652580E0
2.357872667E0,3.118447661E-1,-1.717839688E-1,1.011430550E1
2.359870688E0,2.687491477E-1,1.203086376E-1,9.180566788E0
2.361868709E0,2.591723204E-1,-1.382651478E-1,9.573215485E0
2.363866730E0,1.873462796E-1,-1.286883354E-1,9.970652580E0
2.365864750E0,1.777694821E-1,1.490390599E-1,9.645041466E0
2.367862667E0,9.157821536E-2,1.017535757E-2,9.343372345E0
2.369860532E0,-8.978256024E-3,-2.196680009E-1,1.046385860E1
2.371858396E0,6.284779310E-2,1.017535757E-2,1.033936024E1
2.373856261E0,-2.334346622E-2,3.309983909E-1,9.534908295E0
2.375854125E0,-8.559270948E-2,4.411316514E-1,8.768763542E0
2.377851938E0,-5.207388848E-2,3.645172119E-1,9.405621529E0
2.379849750E0,-1.047463268E-1,1.394622475E-1,9.745597839E0
2.381847563E0,-1.238999367E-1,4.848258570E-2,1.036330223E1
2.383845375E0,-5.686229095E-2,1.298854351E-1,1.007599831E1
2.385843188E0,-4.249707982E-2,2.112883031E-1,9.621099472E0
2.387841052E0,-8.080431074E-2,3.932476342E-1,9.568427086E0
2.389838969E0,-1.334767491E-1,3.214215636E-1,9.228450775E0
2.391836938E0,-5.686229095E-2,8.200141042E-2,1.029626465E1
2.393834959E0,-8.080431074E-2,-1.855506375E-2,9.894038200E0
2.395832980E0,-1.376665942E-2,9.636662155E-2,9.985017776E0
2.397831000E0,-5.207388848E-2,1.681926697E-1,9.563638687E0
2.399829021E0,-6.165069342E-2,1.011550203E-1,9.223662376E0
2.401827042E0,-5.686229095E-2,-2.100912035E-1,1.006163311E1
2.403825063E0,-7.601590455E-2,-1.191115379E-1,1.015740108E1
2.405823084E0,-2.813187055E-2,3.411737457E-2,9.127894402E0
2.407821105E0,-4.728548229E-2,1.107318252E-1,9.008183479E0
2.409819125E0,-7.601590455E-2,-2.813187055E-2,9.281123161E0
2.411817146E0,-4.728548229E-2,-3.298012912E-1,9.386467934E0
2.413815167E0,-1.478419602E-1,-4.734533727E-1,1.138802052E1
2.415813240E0,-1.047463268E-1,-1.382651478E-1,9.625887871E0
2.417811313E0,9.636662155E-2,-2.483984232E-1,9.056067467E0
2.419809386E0,1.059434265E-1,-5.740098357E-1,1.080862331E1
2.421807459E0,1.975216344E-2,-3.010708690E-1,9.750386238E0
2.423805532E0,6.284779310E-2,-1.765723825E-1,9.759963036E0
2.425803657E0,1.825578809E-1,-1.478419602E-1,9.582792282E0
2.427801782E0,1.298854351E-1,6.284779310E-2,9.056067467E0
2.429799907E0,8.678980917E-2,1.203086376E-1,8.859743118E0
2.431798032E0,1.011550203E-1,-1.382651478E-1,9.956287384E0
2.433796157E0,1.017535757E-2,-3.537433147E-1,1.043512821E1
2.435794282E0,-3.770867735E-2,-3.920505345E-1,1.014303589E1
2.437792407E0,-1.855506375E-2,-2.579752207E-1,1.016218948E1
2.439790532E0,1.496376097E-2,-6.643909961E-2,9.329007149E0
2.441788657E0,4.369417951E-2,1.490390599E-1,9.261969566E0
2.443786782E0,1.203086376E-1,2.735375464E-1,8.629899979E0
2.445784907E0,1.346738487E-1,3.597288132E-1,9.022548676E0
2.447783032E0,9.157821536E-2,-2.483984232E-1,1.011430550E1
2.449781157E0,1.346738487E-1,-8.708908558E-1,1.224035645E1
2.451779282E0,1.059434265E-1,-4.159925580E-1,1.100494766E1
2.453777407E0,1.107318252E-1,3.693056107E-1,8.854954720E0
2.455775427E0,1.017535757E-2,4.602852762E-1,7.949946880E0
2.457773396E0,-6.643909961E-2,-6.643909961E-2,8.979453087E0
2.459771365E0,-7.122749835E-2,-5.404910445E-1,1.096185207E1
2.461769334E0,-4.249707982E-2,-3.489548862E-1,1.039203262E1
2.463767302E0,5.386953708E-3,-3.292027488E-2,9.391256332E0
2.465765271E0,3.890577704E-2,1.825578809E-1,8.998606682E0
2.467763240E0,9.636662155E-2,-1.855506375E-2,9.305065155E0
2.469761209E0,9.157821536E-2,-2.771288455E-1,1.044470501E1
2.471759177E0,7.721300423E-2,-8.559270948E-2,1.063145256E1
2.473757146E0,1.107318252E-1,3.884592354E-1,9.625887871E0
2.475755115E0,4.848258570E-2,3.214215636E-1,9.156624794E0
2.477753084E0,-2.148796022E-1,-2.053027898E-1,9.487024307E0
2.479751052E0,-2.148796022E-1,-1.622071713E-1,9.606734276E0
2.481749021E0,-1.430535465E-1,-1.238999367E-1,9.582792282E0
2.483746990E0,-8.559270948E-2,-2.914940715E-1,9.941922188E0
2.485744959E0,-6.165069342E-2,-2.244564146E-1,1.023401546E1
2.487742927E0,-4.189853091E-3,-1.855506375E-2,1.012867069E1
2.489740896E0,1.107318252E-1,4.554968774E-1,9.127894402E0
2.491738865E0,1.155202314E-1,5.368997455E-1,8.778340340E0
2.493736886E0,8.678980917E-2,2.879027426E-1,9.807847023E0
2.495734959E0,3.411737457E-2,-1.143231317E-1,1.047343540E1
2.497733084E0,-1.238999367E-1,-4.782418013E-1,1.021486187E1
2.499731261E0,-1.334767491E-1,-3.393780887E-1,1.021007347E1
2.501729438E0,-1.669955701E-1,-1.855506375E-2,9.362525940E0
2.503727615E0,-1.143231317E-1,2.256535143E-1,8.768763542E0
2.505725792E0,-4.189853091E-3,1.777694821E-1,9.381679535E0
2.507723969E0,3.890577704E-2,5.386953708E-3,1.012867069E1
2.509722146E0,8.678980917E-2,7.242459804E-2,1.000417137E1
2.511720323E0,1.777694821E-1,4.848258570E-2,1.006163311E1
2.513718500E0,6.763619930E-2,-8.080431074E-2,9.965864182E0
2.515716677E0,9.636662155E-2,-1.191115379E-1,9.463082314E0
2.517714855E0,2.017114908E-1,-1.334767491E-1,1.061708736E1
2.519713032E0,6.284779310E-2,6.422445774E-1,8.514978409E0
2.521711157E0,-2.813187055E-2,5.608417392E-1,8.423998833E0
2.523709073E0,1.011550203E-1,-2.627636492E-1,1.031062984E1
2.525706990E0,4.848258570E-2,-1.191115379E-1,1.044470501E1
2.527704907E0,-6.643909961E-2,-2.244564146E-1,1.001374817E1
2.529702823E0,-3.292027488E-2,-3.106476665E-1,9.807847023E0
2.531700740E0,-4.189853091E-3,-7.601590455E-2,9.209297180E0
2.533698657E0,-2.334346622E-2,-1.430535465E-1,9.372102737E0
2.535696573E0,5.327098817E-2,-3.968389332E-1,1.031062984E1
2.537694542E0,5.327098817E-2,-3.250128925E-1,1.027232265E1
2.539692563E0,5.386953708E-3,-2.334346622E-2,9.573215485E0
2.541690636E0,1.496376097E-2,-4.249707982E-2,9.132682800E0
2.543688761E0,1.394622475E-1,-1.334767491E-1,9.199720383E0
2.545686938E0,2.735375464E-1,-3.681085110E-1,1.051653099E1
2.547685167E0,2.208651006E-1,-3.728969097E-1,1.066975975E1
2.549683448E0,1.729810685E-1,-2.196680009E-1,9.381679535E0
2.551681730E0,1.825578809E-1,-6.643909961E-2,9.285911560E0
2.553680011E0,2.495955229E-1,-1.334767491E-1,9.352949142E0
2.555678292E0,3.549404144E-1,-4.064157307E-1,9.932345390E0
2.557676469E0,3.405751884E-1,-4.399345517E-1,9.908403397E0
2.559674490E0,2.591723204E-1,-2.340332121E-1,9.578003883E0
2.561672511E0,3.022679687E-1,-1.478419602E-1,9.692925453E0
2.563670480E0,3.501519859E-1,-6.643909961E-2,9.635464668E0
2.565668396E0,2.064998895E-1,1.017535757E-2,9.755174637E0
2.567666313E0,1.490390599E-1,1.346738487E-1,9.463082314E0
2.569664230E0,2.448071241E-1,3.890577704E-2,9.558850288E0
2.571662146E0,1.729810685E-1,-4.189853091E-3,1.006642151E1
2.573660063E0,2.783259451E-1,3.411737457E-2,9.803058624E0
2.575657980E0,2.687491477E-1,5.985504249E-4,9.894038200E0
2.577655896E0,2.112883031E-1,1.059434265E-1,9.779116631E0
2.579653813E0,1.394622475E-1,1.496376097E-2,1.012867069E1
2.581651730E0,6.284779310E-2,9.636662155E-2,9.980229378E0
2.583649698E0,5.386953708E-3,2.639607489E-1,9.721655846E0
2.585647719E0,1.975216344E-2,5.033808947E-1,9.218873978E0
2.587645740E0,-7.601590455E-2,4.890156984E-1,8.950722694E0
2.589643761E0,-1.526303589E-1,3.932476342E-1,9.625887871E0
2.591641782E0,-1.430535465E-1,4.076128304E-1,9.750386238E0
2.593639802E0,-1.191115379E-1,4.028244317E-1,9.989806175E0
2.595637823E0,-7.601590455E-2,4.028244317E-1,1.001853657E1
2.597635844E0,-1.047463268E-1,3.501519859E-1,1.003290176E1
2.599633865E0,-6.643909961E-2,5.273229480E-1,9.831789017E0
2.601631886E0,3.890577704E-2,6.230909824E-1,9.764751434E0
2.603629907E0,7.721300423E-2,6.470330358E-1,9.645041466E0
2.605627927E0,4.848258570E-2,6.805518270E-1,9.295488358E0
2.607625948E0,-7.601590455E-2,8.577227592E-1,9.405621529E0
2.609623969E0,-4.189853091E-3,7.715315223E-1,9.352949142E0
2.611621990E0,-4.189853091E-3,5.129576921E-1,1.043033981E1
2.613620011E0,-2.813187055E-2,4.267664552E-1,9.946710587E0
2.615618032E0,-4.249707982E-2,4.985924959E-1,9.932345390E0
2.617616052E0,-2.813187055E-2,8.002619147E-1,9.305065155E0
2.619614073E0,-1.855506375E-2,8.960300088E-1,9.194931984E0
2.621611938E0,-2.813187055E-2,8.577227592E-1,1.006163311E1
2.623609698E0,-4.249707982E-2,8.864531517E-1,9.798270226E0
2.625607459E0,-2.813187055E-2,6.757634282E-1,9.817423820E0
2.627605219E0,-4.189853091E-3,5.416881442E-1,1.025795746E1
2.629602980E0,-5.207388848E-2,8.050503135E-1,9.621099472E0
2.631600740E0,1.975216344E-2,1.049258947E0,8.998606682E0
2.633598500E0,1.011550203E-1,1.063624144E0,9.491812706E0
2.635596261E0,1.203086376E-1,9.870096445E-1,9.793481827E0
2.637594021E0,1.011550203E-1,7.523778677E-1,1.021486187E1
2.639591782E0,-1.376665942E-2,9.630676508E-1,1.014782429E1
2.641589542E0,-9.995792061E-2,1.183334231E0,9.692925453E0
2.643587302E0,6.284779310E-2,1.154603720E0,9.831789017E0
2.645585115E0,8.200141042E-2,1.317409515E0,9.616311073E0
2.647582980E0,1.107318252E-1,1.710058570E0,9.132682800E0
2.649580896E0,2.017114908E-1,2.016516447E0,8.486248016E0
2.651578865E0,2.831143439E-1,1.590348482E0,9.745597839E0
2.653576886E0,3.309983909E-1,1.307832718E0,1.096664047E1
2.655574959E0,2.974795699E-1,1.513733983E0,9.975440979E0
2.657573032E0,2.064998895E-1,1.619078875E0,9.884461403E0
2.659571105E0,2.352303118E-1,1.724423766E0,9.793481827E0
2.661569177E0,1.442506462E-1,1.485003591E0,8.974664688E0
2.663567302E0,6.763619930E-2,1.020528436E0,9.927556992E0
2.665565427E0,-4.728548229E-2,7.044938207E-1,9.956287384E0
2.667563552E0,-5.207388848E-2,6.278793812E-1,9.817423820E0
2.669561677E0,-1.622071713E-1,4.315548539E-1,9.443928719E0
2.671559802E0,-1.813607812E-1,2.304419130E-1,9.649829865E0
2.673557927E0,-1.334767491E-1,-1.957259923E-1,1.024838066E1
2.675556052E0,-8.080431074E-2,-2.627636492E-1,1.055962658E1
2.677554177E0,-1.334767491E-1,-9.516951442E-2,1.001374817E1
2.679552198E0,-1.478419602E-1,2.208651006E-1,9.352949142E0
2.681550167E0,-1.238999367E-1,2.160767019E-1,8.816647530E0
2.683548136E0,-4.249707982E-2,-4.728548229E-2,9.348160744E0
2.685546105E0,5.985504249E-4,-4.064157307E-1,9.678560257E0
2.687544073E0,-1.855506375E-2,-5.213374496E-1,1.047822380E1
2.689542042E0,-1.238999367E-1,-3.154360652E-1,9.707290649E0
2.691540011E0,-6.165069342E-2,-1.286883354E-1,8.960299492E0
2.693537980E0,-3.292027488E-2,-2.723404467E-1,9.477447510E0
2.695535948E0,-3.770867735E-2,-4.495113790E-1,1.007599831E1
2.697533917E0,1.975216344E-2,-3.681085110E-1,9.683348656E0
2.699531886E0,6.763619930E-2,-3.441664875E-1,9.783905029E0
2.701529855E0,5.386953708E-3,-2.627636492E-1,9.458293915E0
2.703527823E0,1.107318252E-1,-8.080431074E-2,9.759963036E0
2.705525792E0,1.203086376E-1,2.400187254E-1,9.396044731E0
2.707523761E0,1.011550203E-1,1.634042710E-1,9.568427086E0
2.709521730E0,5.327098817E-2,-5.207388848E-2,1.083256531E1
2.711519698E0,-4.189853091E-3,2.639607489E-1,9.913191795E0
2.713517667E0,-2.813187055E-2,4.698620737E-1,9.415198326E0
2.715515636E0,1.496376097E-2,3.214215636E-1,1.003769016E1
2.717513605E0,-8.080431074E-2,1.490390599E-1,1.002332497E1
2.719511573E0,-1.669955701E-1,3.788824081E-1,9.889249802E0
2.721509542E0,-2.334346622E-2,5.081692934E-1,9.319430351E0
2.723507511E0,-9.038111567E-2,3.740940094E-1,9.989806175E0
2.725505480E0,-1.334767491E-1,3.980360329E-1,9.764751434E0
2.727503448E0,-1.622071713E-1,5.129576921E-1,9.582792282E0
2.729501417E0,-1.669955701E-1,4.842272997E-1,9.223662376E0
2.731499386E0,-1.574187577E-1,3.597288132E-1,9.702502251E0
2.733497355E0,-2.053027898E-1,6.763619930E-2,1.021486187E1
2.735495323E0,-1.334767491E-1,-1.191115379E-1,9.898826599E0
2.737493292E0,-6.643909961E-2,-3.770867735E-2,9.683348656E0
2.739491261E0,-9.038111567E-2,1.921346933E-1,8.950722694E0
2.741489230E0,-1.238999367E-1,1.059434265E-1,9.271546364E0
2.743487146E0,-5.207388848E-2,3.890577704E-2,9.386467934E0
2.745484907E0,2.932897024E-2,-1.286883354E-1,1.042076302E1
2.747482667E0,1.107318252E-1,-1.957259923E-1,1.047343540E1
2.749480427E0,9.636662155E-2,7.242459804E-2,9.520543098E0
2.751478188E0,8.678980917E-2,1.059434265E-1,9.099164009E0
2.753475948E0,1.729810685E-1,-2.100912035E-1,1.072243214E1
2.755473709E0,2.112883031E-1,1.777694821E-1,1.006642151E1
2.757471469E0,2.543839216E-1,3.501519859E-1,8.811859131E0
2.759469230E0,2.256535143E-1,6.763619930E-2,9.477447510E0
2.761466990E0,2.448071241E-1,-9.516951442E-2,9.975440979E0
2.763464750E0,2.064998895E-1,-7.601590455E-2,9.836577415E0
2.765462563E0,1.634042710E-1,6.763619930E-2,9.539696693E0
2.767460427E0,1.442506462E-1,3.788824081E-1,8.955511093E0
2.769458344E0,1.442506462E-1,3.836708367E-1,8.993818283E0
2.771456313E0,-3.292027488E-2,-1.095347255E-1,1.024838066E1
2.773454334E0,-1.143231317E-1,-2.819172442E-1,1.083256531E1
2.775452407E0,-1.286883354E-1,1.969230920E-1,1.008078671E1
2.777450532E0,-1.143231317E-1,6.853402257E-1,8.965087891E0
2.779448657E0,-2.005143911E-1,5.895721912E-1,9.352949142E0
2.781446782E0,-1.095347255E-1,2.687491477E-1,1.010472870E1
2.783444907E0,-1.855506375E-2,1.825578809E-1,1.018134308E1
2.785443032E0,-7.122749835E-2,5.799953341E-1,9.649829865E0
2.787440532E0,-1.047463268E-1,6.709750295E-1,8.677783966E0
2.789438032E0,-1.238999367E-1,1.634042710E-1,9.946710587E0
2.791435532E0,-1.143231317E-1,1.298854351E-1,1.068412495E1
2.793433084E0,1.634042710E-1,1.490390599E-1,1.009036350E1
2.795430688E0,1.203086376E-1,2.208651006E-1,1.027232265E1
2.797428344E0,-1.855506375E-2,6.230909824E-1,8.835801125E0
2.799426052E0,7.242459804E-2,5.512649417E-1,8.969876289E0
2.801423865E0,6.284779310E-2,2.495955229E-1,9.884461403E0
2.803421730E0,-1.238999367E-1,-5.686229095E-2,1.073200893E1
2.805419646E0,-3.292027488E-2,9.636662155E-2,1.024838066E1
2.807417615E0,1.975216344E-2,5.847837925E-1,9.281123161E0
2.809415636E0,-3.770867735E-2,6.087257862E-1,8.634688377E0
2.811413709E0,-2.813187055E-2,1.634042710E-1,9.994594574E0
2.813411834E0,-2.813187055E-2,-2.867056429E-1,1.084214211E1
2.815410011E0,-1.382651478E-1,-2.292448133E-1,1.025316906E1
2.817408240E0,-1.047463268E-1,2.687491477E-1,9.147047997E0
2.819406521E0,-2.053027898E-1,3.836708367E-1,8.160636902E0
2.821404802E0,-2.292448133E-1,1.538274586E-1,8.965087891E0
2.823403084E0,-1.765723825E-1,-1.286883354E-1,9.501389503E0
2.825401365E0,-1.622071713E-1,-4.590881765E-1,1.047822380E1
2.827399646E0,-2.675520480E-1,-3.345896900E-1,1.031541824E1
2.829397875E0,-2.053027898E-1,-4.249707982E-2,9.544485092E0
2.831395844E0,-1.286883354E-1,-5.686229095E-2,9.702502251E0
2.833393657E0,-3.154360652E-1,-3.154360652E-1,1.005205631E1
2.835391313E0,-2.867056429E-1,-1.238999367E-1,1.008078671E1
2.837388969E0,-2.723404467E-1,1.011550203E-1,9.285911560E0
2.839386625E0,-2.867056429E-1,8.200141042E-2,9.386467934E0
2.841384282E0,-3.441664875E-1,3.022679687E-1,9.745597839E0
2.843381938E0,-3.345896900E-1,2.543839216E-1,9.563638687E0
2.845379594E0,-2.196680009E-1,5.985504249E-4,1.005205631E1
2.847377250E0,-2.053027898E-1,-8.978256024E-3,1.040160942E1
2.849374907E0,-1.765723825E-1,2.400187254E-1,9.970652580E0
2.851372563E0,-1.478419602E-1,3.405751884E-1,9.731232643E0
2.853370219E0,-2.579752207E-1,4.746504724E-1,9.625887871E0
2.855367875E0,-1.957259923E-1,6.805518270E-1,9.443928719E0
2.857365532E0,-4.249707982E-2,6.613982320E-1,9.238027573E0
2.859363240E0,-1.430535465E-1,6.997054219E-1,9.376891136E0
2.861361000E0,-1.622071713E-1,7.044938207E-1,9.822212219E0
2.863358813E0,-1.909375787E-1,6.135141850E-1,1.021486187E1
2.865356677E0,-3.154360652E-1,7.140706778E-1,9.913191795E0
2.867354542E0,-3.058592677E-1,7.763199210E-1,9.463082314E0
2.869352407E0,-3.345896900E-1,7.044938207E-1,9.917980194E0
2.871350271E0,-3.345896900E-1,5.991489887E-1,9.501389503E0
2.873348136E0,-2.914940715E-1,5.368997455E-1,1.000895977E1
2.875346000E0,-2.292448133E-1,7.571662664E-1,9.697713852E0
2.877343865E0,-2.388216257E-1,7.380126715E-1,9.151836395E0
2.879341730E0,-1.574187577E-1,3.693056107E-1,9.659406662E0
2.881339594E0,-1.765723825E-1,1.586158574E-1,1.044470501E1
2.883337511E0,-2.531868219E-1,2.495955229E-1,9.812635422E0
2.885335480E0,-1.813607812E-1,6.805518270E-1,9.578003883E0
2.887333500E0,-2.675520480E-1,5.560533404E-1,9.113529205E0
2.889331521E0,-2.483984232E-1,2.256535143E-1,1.005684471E1
2.891329542E0,-6.643909961E-2,2.639607489E-1,1.027711105E1
2.893327563E0,-4.249707982E-2,3.549404144E-1,9.898826599E0
2.895325584E0,-1.855506375E-2,2.831143439E-1,9.769539833E0
2.897323605E0,-2.813187055E-2,3.070563674E-1,9.731232643E0
2.899321625E0,-1.861491799E-1,2.639607489E-1,9.645041466E0
2.901319646E0,-1.669955701E-1,4.076128304E-1,9.338583946E0
2.903317667E0,-1.622071713E-1,4.124012291E-1,9.755174637E0
2.905315688E0,-1.669955701E-1,1.394622475E-1,9.333795547E0
2.907313709E0,-1.430535465E-1,-2.813187055E-2,9.807847023E0
2.909311730E0,-2.053027898E-1,1.107318252E-1,1.015261269E1
2.911309750E0,-2.340332121E-1,3.693056107E-1,9.429563522E0
2.913307771E0,-2.196680009E-1,4.746504724E-1,9.463082314E0
2.915305792E0,-1.574187577E-1,2.591723204E-1,9.640253067E0
2.917303813E0,-6.643909961E-2,7.721300423E-2,1.051174259E1
2.919301834E0,-1.813607812E-1,4.459200799E-1,9.783905029E0
2.921299855E0,-1.430535465E-1,4.650736749E-1,9.209297180E0
2.923297875E0,-1.861491799E-1,5.560533404E-1,9.659406662E0
2.925295896E0,-3.202244639E-1,5.416881442E-1,9.252392769E0
2.927293917E0,-3.154360652E-1,2.543839216E-1,1.026274586E1
2.929291938E0,-3.202244639E-1,2.352303118E-1,1.034893703E1
2.931290011E0,-1.909375787E-1,3.166331649E-1,9.252392769E0
2.933288084E0,-1.095347255E-1,1.442506462E-1,1.001853657E1
2.935286209E0,-9.516951442E-2,4.369417951E-2,9.788693428E0
2.937284334E0,-1.574187577E-1,4.363432527E-1,9.611522675E0
2.939282459E0,-1.622071713E-1,6.661866307E-1,8.577227592E0
2.941280584E0,-1.286883354E-1,3.501519859E-1,9.534908295E0
2.943278709E0,2.454056777E-2,7.242459804E-2,1.034893703E1
2.945276834E0,1.681926697E-1,-4.728548229E-2,1.043991661E1
2.947274959E0,1.203086376E-1,8.678980917E-2,9.865307808E0
2.949273084E0,1.969230920E-1,2.208651006E-1,8.998606682E0
2.951271209E0,1.681926697E-1,-9.038111567E-2,1.000417137E1
2.953269334E0,-2.334346622E-2,-6.165069342E-2,9.994594574E0
2.955267459E0,-1.855506375E-2,1.825578809E-1,9.415198326E0
2.957265584E0,4.848258570E-2,2.160767019E-1,9.549273491E0
2.959263657E0,1.969230920E-1,-6.165069342E-2,1.004726696E1
2.961261677E0,1.729810685E-1,2.932897024E-2,9.994594574E0
2.963259594E0,2.208651006E-1,2.543839216E-1,9.051279068E0
2.965257511E0,1.107318252E-1,1.203086376E-1,9.352949142E0
2.967255427E0,9.157821536E-2,1.017535757E-2,1.012388229E1
2.969253344E0,6.763619930E-2,9.636662155E-2,9.783905029E0
2.971251261E0,1.298854351E-1,-1.376665942E-2,9.549273491E0
2.973249177E0,1.969230920E-1,-1.382651478E-1,1.022443867E1
2.975247042E0,2.735375464E-1,9.157821536E-2,9.951498985E0
2.977244802E0,2.400187254E-1,1.442506462E-1,9.362525940E0
2.979242563E0,2.831143439E-1,-2.813187055E-2,9.903614998E0
2.981240323E0,3.357867897E-1,-1.095347255E-1,9.980229378E0
2.983238084E0,2.064998895E-1,-8.559270948E-2,9.850942612E0
2.985235844E0,1.203086376E-1,5.386953708E-3,9.324218750E0
2.987233605E0,2.208651006E-1,3.890577704E-2,9.300276756E0
2.989231365E0,2.495955229E-1,1.975216344E-2,9.606734276E0
2.991229125E0,2.495955229E-1,9.157821536E-2,9.860519409E0
2.993226886E0,2.783259451E-1,3.411737457E-2,9.937133789E0
2.995224646E0,3.022679687E-1,2.932897024E-2,9.712079048E0
2.997222459E0,2.687491477E-1,4.369417951E-2,1.005684471E1
2.999220323E0,3.070563674E-1,2.543839216E-1,9.510966301E0
3.001218240E0,2.064998895E-1,3.932476342E-1,8.974664688E0
3.003216209E0,3.166331649E-1,1.394622475E-1,9.755174637E0
3.005214230E0,3.357867897E-1,8.200141042E-2,1.045907021E1
3.007212302E0,2.831143439E-1,4.746504724E-1,9.616311073E0
3.009210427E0,1.586158574E-1,5.081692934E-1,9.640253067E0
3.011208605E0,9.157821536E-2,3.836708367E-1,1.030105305E1
3.013206834E0,1.394622475E-1,2.831143439E-1,1.015740108E1
3.015205063E0,2.017114908E-1,5.416881442E-1,1.013345909E1
3.017203292E0,1.975216344E-2,9.343371987E-1,8.965087891E0
3.019201521E0,-1.238999367E-1,6.661866307E-1,8.835801125E0
3.021199750E0,-8.559270948E-2,2.304419130E-1,1.004247856E1
3.023197980E0,-9.995792061E-2,3.214215636E-1,9.937133789E0
3.025196209E0,-1.047463268E-1,3.501519859E-1,9.707290649E0
3.027194438E0,7.242459804E-2,5.805939063E-2,1.018613148E1
3.029192667E0,1.777694821E-1,2.112883031E-1,9.951498985E0
3.031190896E0,1.155202314E-1,2.495955229E-1,9.228450775E0
3.033189125E0,1.059434265E-1,2.352303118E-1,9.276334763E0
3.035187355E0,-1.855506375E-2,9.636662155E-2,9.769539833E0
3.037185480E0,-3.292027488E-2,-9.516951442E-2,1.004247856E1
3.039183552E0,1.250970364E-1,-2.334346622E-2,1.026274586E1
3.041181573E0,1.921346933E-1,1.729810685E-1,9.214085579E0
3.043179594E0,2.448071241E-1,1.921346933E-1,9.170989990E0
3.045177615E0,2.687491477E-1,4.369417951E-2,9.558850288E0
3.047175636E0,2.448071241E-1,-2.053027898E-1,9.692925453E0
3.049173657E0,3.022679687E-1,-3.537433147E-1,9.731232643E0
3.051171677E0,4.554968774E-1,-1.957259923E-1,9.884461403E0
3.053169698E0,5.273229480E-1,-7.122749835E-2,9.343372345E0
3.055167719E0,5.273229480E-1,-4.926069975E-1,9.458293915E0
3.057165740E0,4.507084787E-1,-5.452794433E-1,1.077031612E1
3.059163761E0,4.411316514E-1,-4.189853091E-3,9.281123161E0
3.061161782E0,5.416881442E-1,4.848258570E-2,8.936357498E0
3.063159802E0,6.278793812E-1,-3.202244639E-1,1.028668785E1
3.065157875E0,6.757634282E-1,-4.207809567E-1,1.013345909E1
3.067156000E0,6.278793812E-1,-2.005143911E-1,1.072243214E1
3.069154177E0,6.278793812E-1,3.357867897E-1,9.300276756E0
3.071152407E0,5.464765429E-1,4.985924959E-1,8.629899979E0
3.073150636E0,5.321113467E-1,3.166331649E-1,9.721655846E0
3.075148865E0,4.890156984E-1,3.262099922E-1,1.016218948E1
3.077147094E0,4.363432527E-1,6.949170232E-1,9.879673004E0
3.079145323E0,3.884592354E-1,7.380126715E-1,9.190143585E0
3.081143552E0,2.735375464E-1,5.273229480E-1,1.031541824E1
3.083141782E0,2.879027426E-1,6.470330358E-1,1.040639782E1
3.085140011E0,3.693056107E-1,6.709750295E-1,9.075222015E0
3.087138240E0,1.969230920E-1,7.475894690E-1,1.021486187E1
3.089136469E0,2.932897024E-2,7.906851172E-1,9.343372345E0
3.091134698E0,2.687491477E-1,6.901286244E-1,1.012388229E1
3.093132927E0,2.783259451E-1,8.577227592E-1,9.889249802E0
3.095131157E0,9.636662155E-2,1.001374841E0,9.716867447E0
3.097129386E0,1.059434265E-1,1.077989340E0,9.606734276E0
3.099127615E0,1.681926697E-1,1.087566137E0,8.936357498E0
3.101125740E0,1.203086376E-1,6.709750295E-1,9.769539833E0
3.103123657E0,2.783259451E-1,5.081692934E-1,1.005684471E1
3.105121573E0,2.639607489E-1,7.332242727E-1,9.783905029E0
3.107119490E0,1.538274586E-1,7.092822790E-1,9.333795547E0
3.109117407E0,6.284779310E-2,5.368997455E-1,9.400833130E0
3.111115323E0,1.921346933E-1,3.645172119E-1,1.007120991E1
3.113113292E0,1.969230920E-1,1.155202314E-1,1.036330223E1
3.115111313E0,2.208651006E-1,1.777694821E-1,1.013824749E1
3.117109334E0,3.836708367E-1,4.507084787E-1,9.554061890E0
3.119107355E0,2.448071241E-1,5.991489887E-1,9.630676270E0
3.121105375E0,1.538274586E-1,6.039373875E-1,9.563638687E0
3.123103396E0,4.848258570E-2,3.645172119E-1,9.975440979E0
3.125101417E0,1.496376097E-2,3.836708367E-1,9.716867447E0
3.127099438E0,3.411737457E-2,4.554968774E-1,9.419986725E0
3.129097459E0,1.681926697E-1,1.250970364E-1,9.917980194E0
3.131095480E0,1.921346933E-1,1.107318252E-1,1.059314537E1
3.133093500E0,1.681926697E-1,3.357867897E-1,8.974664688E0
3.135091573E0,-2.334346622E-2,3.166331649E-1,9.482235909E0
3.137089698E0,-9.995792061E-2,-1.376665942E-2,9.132682800E0
3.139087823E0,-4.728548229E-2,-1.717839688E-1,1.046385860E1
3.141085948E0,-6.643909961E-2,2.926911712E-1,9.343372345E0
3.143084073E0,-9.038111567E-2,4.028244317E-1,8.778340340E0
3.145082198E0,1.496376097E-2,2.352303118E-1,9.448717117E0
3.147080323E0,8.678980917E-2,-1.376665942E-2,1.115817738E1
3.149078448E0,-1.334767491E-1,2.448071241E-1,9.027337074E0
3.151076573E0,-2.196680009E-1,2.064998895E-1,9.726444244E0
3.153074698E0,-1.909375787E-1,3.597288132E-1,9.894038200E0
3.155072823E0,3.411737457E-2,6.278793812E-1,9.228450775E0
3.157070948E0,-3.292027488E-2,4.698620737E-1,9.908403397E0
3.159069073E0,-1.376665942E-2,3.411737457E-2,1.045428181E1
3.161067198E0,-7.122749835E-2,1.825578809E-1,1.108156300E1
3.163065323E0,-3.770867735E-2,8.672995567E-1,8.854954720E0
3.165063448E0,1.017535757E-2,6.518214345E-1,8.773551941E0
3.167061313E0,1.490390599E-1,5.273229480E-1,9.917980194E0
3.169059177E0,4.369417951E-2,4.746504724E-1,9.276334763E0
3.171057042E0,1.250970364E-1,1.873462796E-1,1.032978344E1
3.173054907E0,2.017114908E-1,4.363432527E-1,9.937133789E0
3.175052771E0,1.825578809E-1,5.704185367E-1,9.391256332E0
3.177050636E0,2.591723204E-1,3.597288132E-1,1.009994030E1
3.179048500E0,2.304419130E-1,1.729810685E-1,9.712079048E0
3.181046365E0,2.017114908E-1,4.369417951E-2,1.069849014E1
3.183044230E0,1.155202314E-1,-2.334346622E-2,1.027711105E1
3.185042094E0,1.346738487E-1,-4.159925580E-1,1.094269848E1
3.187039959E0,3.118447661E-1,2.687491477E-1,1.019570827E1
3.189037823E0,2.352303118E-1,9.391255975E-1,8.093599319E0
3.191035688E0,1.059434265E-1,9.630676508E-1,8.500613213E0
3.193033552E0,-4.249707982E-2,8.146271110E-1,9.166201591E0
3.195031417E0,-9.038111567E-2,9.008184075E-1,8.524555206E0
3.197029282E0,7.721300423E-2,7.236474752E-1,9.103952408E0
3.199027198E0,-9.516951442E-2,8.577227592E-1,8.874108315E0
3.201025167E0,-2.723404467E-1,4.938040972E-1,8.419210434E0
3.203023188E0,-1.909375787E-1,-2.388216257E-1,1.042076302E1
3.205021261E0,-3.537433147E-1,-3.441664875E-1,1.055483818E1
3.207019334E0,-3.202244639E-1,-3.441664875E-1,1.029626465E1
3.209017407E0,-2.148796022E-1,-2.771288455E-1,1.041118622E1
3.211015480E0,-7.122749835E-2,-5.979518890E-1,1.042076302E1
3.213013552E0,-8.559270948E-2,-4.590881765E-1,1.116296577E1
3.215011625E0,-1.855506375E-2,1.059434265E-1,9.434351921E0
3.217009698E0,-8.978256024E-3,3.932476342E-1,8.783128738E0
3.219007771E0,-1.376665942E-2,1.394622475E-1,9.726444244E0
3.221005844E0,1.250970364E-1,1.250970364E-1,9.898826599E0
3.223003917E0,7.721300423E-2,3.166331649E-1,9.956287384E0
3.225001990E0,1.250970364E-1,2.735375464E-1,1.020049667E1
3.227000063E0,4.369417951E-2,1.490390599E-1,1.073679733E1
3.228998136E0,1.017535757E-2,2.064998895E-1,1.046864700E1
3.230996209E0,1.346738487E-1,3.788824081E-1,1.030584145E1
3.232994282E0,5.327098817E-2,1.006163239E0,9.123106003E0
3.234992355E0,-8.080431074E-2,2.017114908E-1,9.180566788E0
3.236990427E0,-1.765723825E-1,-2.053027898E-1,1.152688408E1
3.238988500E0,-1.286883354E-1,1.025316834E0,8.912415504E0
3.240986573E0,-6.643909961E-2,1.437119603E0,8.050502777E0
3.242984646E0,-9.995792061E-2,1.690904975E0,7.586028099E0
3.244982719E0,-6.643909961E-2,8.816647530E-1,8.423998833E0
3.246980792E0,-2.148796022E-1,-2.334346622E-2,9.123106003E0
3.248978865E0,-3.585317135E-1,-4.399345517E-1,9.908403397E0
3.250976938E0,-3.489548862E-1,-3.681085110E-1,9.381679535E0
3.252975011E0,-2.723404467E-1,-7.894880176E-1,9.194931984E0
3.254973084E0,-1.669955701E-1,-1.306635618E0,1.058356857E1
3.256971157E0,-9.995792061E-2,-1.464652896E0,1.064102936E1
3.258969230E0,-7.601590455E-2,-1.493383288E0,1.020049667E1
3.260967302E0,1.729810685E-1,-1.756745458E0,1.103846741E1
3.262965375E0,3.166331649E-1,-1.517325282E0,1.066497135E1
3.264963448E0,2.783259451E-1,-7.894880176E-1,9.812635422E0
3.266961521E0,2.208651006E-1,-5.596446395E-1,9.822212219E0
3.268959594E0,3.788824081E-1,-8.469488621E-1,1.048780060E1
3.270957667E0,3.884592354E-1,-6.602011323E-1,1.111508179E1
3.272955740E0,4.459200799E-1,-1.238999367E-1,1.044470501E1
3.274953813E0,4.363432527E-1,6.326677799E-1,9.209297180E0
3.276951886E0,4.315548539E-1,9.056068063E-1,9.352949142E0
3.278949959E0,2.783259451E-1,1.077989340E0,8.644265175E0
3.280948032E0,1.059434265E-1,9.056068063E-1,8.850166321E0
3.282946105E0,7.242459804E-2,7.763199210E-1,9.396044731E0
3.284944177E0,-4.728548229E-2,8.098387122E-1,8.802282333E0
3.286942250E0,-3.770867735E-2,3.262099922E-1,9.170989990E0
3.288940323E0,-1.143231317E-1,-9.038111567E-2,1.014782429E1
3.290938396E0,-2.436100245E-1,-1.095347255E-1,9.209297180E0
3.292936313E0,-2.436100245E-1,-8.978256024E-3,9.228450775E0
3.294934230E0,-1.717839688E-1,-1.669955701E-1,8.366538048E0
3.296932146E0,-1.430535465E-1,-8.517372608E-1,9.439140320E0
3.298930063E0,-9.995792061E-2,-1.024119735E0,1.024838066E1
3.300927980E0,-1.574187577E-1,-1.095945835E0,9.309853554E0
3.302925896E0,-1.765723825E-1,-1.287482023E0,9.678560257E0
3.304923761E0,-8.080431074E-2,-1.388038397E0,1.018613148E1
3.306921521E0,6.763619930E-2,-1.488594890E0,1.048780060E1
3.308919282E0,1.155202314E-1,-1.392826796E0,1.105283260E1
3.310917042E0,1.017535757E-2,-9.953893423E-1,1.032020664E1
3.312914802E0,7.721300423E-2,-8.277952671E-1,1.069849014E1
3.314912563E0,1.442506462E-1,-6.889315248E-1,1.065060616E1
3.316910323E0,2.017114908E-1,-5.883750916E-1,1.090439129E1
3.318908084E0,2.591723204E-1,-1.047463268E-1,1.057878017E1
3.320905896E0,3.549404144E-1,3.932476342E-1,9.745597839E0
3.322903761E0,4.219780564E-1,6.470330358E-1,9.367314339E0
3.324901677E0,3.453635871E-1,7.475894690E-1,8.725667953E0
3.326899646E0,3.070563674E-1,5.081692934E-1,9.209297180E0
3.328897667E0,2.208651006E-1,6.757634282E-1,9.391256332E0
3.330895740E0,2.208651006E-1,4.890156984E-1,9.194931984E0
3.332893865E0,1.250970364E-1,3.788824081E-1,9.084798813E0
3.334892042E0,-8.559270948E-2,7.242459804E-2,8.802282333E0
3.336890219E0,-2.483984232E-1,-1.855506375E-2,8.917203903E0
3.338888396E0,-2.962824702E-1,-1.669955701E-1,8.649053574E0
3.340886573E0,-1.526303589E-1,-4.926069975E-1,9.333795547E0
3.342884750E0,-7.122749835E-2,-7.463923693E-1,9.362525940E0
3.344882927E0,-1.143231317E-1,-1.091157436E0,1.003290176E1
3.346880948E0,-2.483984232E-1,-1.182137132E0,1.017655468E1
3.348878813E0,-1.143231317E-1,-1.579574585E0,1.029147625E1
3.350876625E0,1.011550203E-1,-1.699284673E0,1.086608410E1
3.352874438E0,6.284779310E-2,-1.186925530E0,1.000417137E1
3.354872250E0,1.394622475E-1,-9.283517003E-1,9.726444244E0
3.356870063E0,2.352303118E-1,-9.858125448E-1,1.043991661E1
3.358867875E0,3.262099922E-1,-9.139865041E-1,1.052610779E1
3.360865688E0,4.363432527E-1,-7.655459642E-1,1.046864700E1
3.362863500E0,4.938040972E-1,-9.714473486E-1,1.060751057E1
3.364861313E0,4.507084787E-1,2.454056777E-2,9.970652580E0
3.366859125E0,3.453635871E-1,9.056068063E-1,7.653065681E0
3.368856938E0,4.459200799E-1,3.788824081E-1,8.672995567E0
3.370854750E0,3.549404144E-1,-1.238999367E-1,1.065539455E1
3.372852563E0,2.495955229E-1,2.591723204E-1,9.654618263E0
3.374850375E0,2.831143439E-1,4.459200799E-1,9.865307808E0
3.376848188E0,1.634042710E-1,4.363432527E-1,9.635464668E0
3.378846000E0,2.495955229E-1,1.490390599E-1,9.463082314E0
3.380843813E0,8.200141042E-2,1.250970364E-1,9.458293915E0
3.382841625E0,-5.207388848E-2,2.687491477E-1,8.907627106E0
3.384839438E0,2.454056777E-2,3.214215636E-1,8.888473511E0
3.386837250E0,5.386953708E-3,1.729810685E-1,9.003395081E0
3.388835115E0,-7.122749835E-2,-2.334346622E-2,9.563638687E0
3.390833032E0,-3.292027488E-2,-2.579752207E-1,9.975440979E0
3.392831000E0,7.721300423E-2,-4.255693555E-1,1.032020664E1
3.394829021E0,1.011550203E-1,-3.728969097E-1,1.003290176E1
3.396827094E0,1.011550203E-1,-8.080431074E-2,1.018613148E1
3.398825167E0,-2.813187055E-2,-2.723404467E-1,9.252392769E0
3.400823240E0,7.242459804E-2,-6.362590790E-1,1.032978344E1
3.402821313E0,4.369417951E-2,-1.191115379E-1,9.913191795E0
3.404819386E0,2.932897024E-2,9.157821536E-2,9.908403397E0
3.406817459E0,4.369417951E-2,-7.122749835E-2,1.059314537E1
3.408815219E0,7.242459804E-2,1.059434265E-1,9.827000618E0
3.410812980E0,3.890577704E-2,2.687491477E-1,9.903614998E0
3.412810740E0,2.400187254E-1,2.160767019E-1,1.000895977E1
3.414808500E0,4.219780564E-1,1.825578809E-1,1.040639782E1
3.416806261E0,3.788824081E-1,2.974795699E-1,1.013824749E1
3.418804021E0,2.208651006E-1,7.332242727E-1,9.142259598E0
3.420801782E0,2.160767019E-1,9.534908533E-1,8.481459618E0
3.422799542E0,3.166331649E-1,7.667431235E-1,9.127894402E0
3.424797302E0,2.735375464E-1,4.746504724E-1,9.563638687E0
3.426795063E0,1.538274586E-1,2.495955229E-1,9.803058624E0
3.428792823E0,1.011550203E-1,3.357867897E-1,9.649829865E0
3.430790584E0,1.203086376E-1,3.645172119E-1,9.314641953E0
3.432788344E0,5.327098817E-2,3.022679687E-1,9.295488358E0
3.434786157E0,1.017535757E-2,1.825578809E-1,9.946710587E0
3.436783969E0,1.975216344E-2,1.681926697E-1,9.654618263E0
3.438781782E0,6.284779310E-2,1.298854351E-1,9.683348656E0
3.440779594E0,4.848258570E-2,9.157821536E-2,9.621099472E0
3.442777407E0,1.250970364E-1,-5.686229095E-2,9.712079048E0
3.444775219E0,1.634042710E-1,-1.813607812E-1,1.073679733E1
3.446773032E0,1.681926697E-1,-7.601590455E-2,1.029147625E1
3.448770844E0,2.017114908E-1,-8.978256024E-3,9.999382973E0
3.450768657E0,2.687491477E-1,2.454056777E-2,9.731232643E0
3.452766469E0,3.070563674E-1,1.394622475E-1,9.922768593E0
3.454764282E0,3.932476342E-1,1.634042710E-1,1.004247856E1
3.456762094E0,2.495955229E-1,4.985924959E-1,9.285911560E0
3.458759907E0,2.352303118E-1,2.926911712E-1,9.458293915E0
3.460757719E0,2.735375464E-1,1.346738487E-1,1.030584145E1
3.462755532E0,3.262099922E-1,1.442506462E-1,9.429563522E0
3.464753344E0,2.304419130E-1,4.411316514E-1,9.376891136E0
3.466751157E0,9.636662155E-2,3.262099922E-1,9.467870712E0
3.468748969E0,1.496376097E-2,2.454056777E-2,9.879673004E0
3.470746782E0,-3.292027488E-2,3.022679687E-1,9.439140320E0
3.472744594E0,8.200141042E-2,5.464765429E-1,8.773551941E0
3.474742355E0,6.763619930E-2,4.554968774E-1,9.233239174E0
3.476740011E0,1.155202314E-1,3.118447661E-1,9.788693428E0
3.478737667E0,1.250970364E-1,2.879027426E-1,9.635464668E0
3.480735323E0,2.304419130E-1,1.921346933E-1,1.004726696E1
3.482732980E0,1.777694821E-1,2.543839216E-1,9.712079048E0
3.484730636E0,1.586158574E-1,2.783259451E-1,9.396044731E0
3.486728292E0,1.538274586E-1,9.157821536E-2,1.003290176E1
3.488725948E0,1.059434265E-1,1.011550203E-1,1.019091988E1
3.490723605E0,8.200141042E-2,3.214215636E-1,9.439140320E0
3.492721261E0,5.327098817E-2,1.975216344E-2,9.697713852E0
3.494718917E0,-8.978256024E-3,-1.286883354E-1,1.048780060E1
3.496716573E0,1.825578809E-1,1.203086376E-1,1.012867069E1
3.498714230E0,1.107318252E-1,4.076128304E-1,9.975440979E0
3.500711886E0,-7.601590455E-2,5.033808947E-1,9.391256332E0
3.502709542E0,1.107318252E-1,3.070563674E-1,9.884461403E0
3.504707198E0,1.496376097E-2,4.848258570E-2,1.067933655E1
3.506704855E0,-4.189853091E-3,4.219780564E-1,1.010472870E1
3.508702563E0,1.490390599E-1,7.475894690E-1,9.357737541E0
3.510700323E0,2.639607489E-1,8.433575630E-1,9.338583946E0
3.512698136E0,1.298854351E-1,8.481459618E-1,9.487024307E0
3.514696000E0,3.890577704E-2,7.715315223E-1,9.352949142E0
3.516693865E0,-4.249707982E-2,8.433575630E-1,9.874884605E0
3.518691730E0,-1.238999367E-1,9.487023950E-1,9.137471199E0
3.520689594E0,-3.292027488E-2,8.194155097E-1,9.194931984E0
3.522687459E0,-8.978256024E-3,3.453635871E-1,1.030105305E1
3.524685323E0,1.496376097E-2,2.208651006E-1,1.036809063E1
3.526683188E0,-8.978256024E-3,6.278793812E-1,9.041702271E0
3.528681052E0,-9.995792061E-2,6.039373875E-1,9.051279068E0
3.530678917E0,-8.559270948E-2,2.064998895E-1,9.745597839E0
3.532676782E0,-2.334346622E-2,3.890577704E-2,1.018134308E1
3.534674646E0,1.975216344E-2,5.805939063E-2,9.831789017E0
3.536672511E0,2.454056777E-2,-8.080431074E-2,9.865307808E0
3.538670375E0,8.200141042E-2,-1.047463268E-1,1.009994030E1
3.540668240E0,1.011550203E-1,8.200141042E-2,9.745597839E0
3.542666105E0,2.017114908E-1,2.932897024E-2,9.635464668E0
3.544663969E0,2.543839216E-1,-1.669955701E-1,1.001374817E1
3.546661834E0,2.543839216E-1,-2.867056429E-1,1.035851383E1
3.548659698E0,1.969230920E-1,1.873462796E-1,9.673771858E0
3.550657250E0,2.304419130E-1,4.602852762E-1,8.965087891E0
3.552654802E0,1.969230920E-1,1.825578809E-1,9.683348656E0
3.554652355E0,2.304419130E-1,-4.189853091E-3,1.044470501E1
3.556649907E0,1.969230920E-1,1.203086376E-1,1.007120991E1
3.558647511E0,1.059434265E-1,2.831143439E-1,9.927556992E0
3.560645167E0,4.369417951E-2,6.278793812E-1,9.175778389E0
3.562642875E0,7.721300423E-2,5.081692934E-1,9.434351921E0
3.564640636E0,-8.559270948E-2,4.650736749E-1,9.563638687E0
3.566638448E0,-1.430535465E-1,7.811083198E-1,9.630676270E0
3.568636313E0,-2.531868219E-1,8.720879555E-1,9.290699959E0
3.570634177E0,-2.579752207E-1,7.284358740E-1,9.257181168E0
3.572632042E0,-2.867056429E-1,5.177460909E-1,1.008557510E1
3.574629959E0,-3.298012912E-1,2.783259451E-1,9.889249802E0
3.576627927E0,-3.154360652E-1,4.411316514E-1,1.028189945E1
3.578625896E0,-3.250128925E-1,5.895721912E-1,9.716867447E0
3.580623865E0,-3.250128925E-1,7.619546652E-1,9.041702271E0
3.582621834E0,-3.298012912E-1,7.667431235E-1,9.266757965E0
3.584619802E0,-3.202244639E-1,5.129576921E-1,9.496601105E0
3.586617771E0,-2.436100245E-1,2.112883031E-1,9.822212219E0
3.588615740E0,-7.601590455E-2,-5.686229095E-2,1.049258900E1
3.590613709E0,-3.770867735E-2,-1.430535465E-1,1.037766743E1
3.592611677E0,1.203086376E-1,8.678980917E-2,1.006163311E1
3.594609646E0,1.496376097E-2,2.017114908E-1,9.606734276E0
3.596607615E0,-5.686229095E-2,2.783259451E-1,9.305065155E0
3.598605584E0,2.454056777E-2,2.831143439E-1,9.194931984E0
3.600603552E0,7.721300423E-2,1.107318252E-1,9.731232643E0
3.602601521E0,1.538274586E-1,-8.559270948E-2,1.006642151E1
3.604599490E0,1.681926697E-1,-3.292027488E-2,9.970652580E0
3.606597459E0,1.538274586E-1,2.735375464E-1,9.649829865E0
3.608595427E0,1.634042710E-1,2.926911712E-1,9.348160744E0
3.610593396E0,2.017114908E-1,4.369417951E-2,9.812635422E0
3.612591365E0,1.346738487E-1,-7.122749835E-2,1.017176628E1
3.614589334E0,7.242459804E-2,4.794389009E-1,9.400833130E0
3.616587355E0,1.107318252E-1,4.698620737E-1,9.118317604E0
3.618585427E0,1.346738487E-1,3.549404144E-1,9.793481827E0
3.620583552E0,2.017114908E-1,4.554968774E-1,9.798270226E0
3.622581730E0,1.729810685E-1,5.225345492E-1,9.520543098E0
3.624579959E0,6.763619930E-2,5.225345492E-1,9.645041466E0
3.626578240E0,5.805939063E-2,3.214215636E-1,9.822212219E0
3.628576573E0,9.636662155E-2,1.538274586E-1,1.045907021E1
3.630574959E0,1.059434265E-1,4.028244317E-1,9.975440979E0
3.632573396E0,1.107318252E-1,4.124012291E-1,9.544485092E0
3.634571834E0,7.721300423E-2,3.693056107E-1,9.932345390E0
3.636570271E0,5.386953708E-3,7.811083198E-1,9.123106003E0
3.638568709E0,4.369417951E-2,1.044470549E0,8.543708801E0
3.640567146E0,-3.292027488E-2,5.081692934E-1,9.645041466E0
3.642565375E0,-1.855506375E-2,4.369417951E-2,1.108635139E1
3.644563605E0,1.346738487E-1,2.495955229E-1,1.050695419E1
3.646561834E0,1.825578809E-1,5.799953341E-1,9.807847023E0
3.648559959E0,1.442506462E-1,7.667431235E-1,9.319430351E0
3.650558032E0,5.327098817E-2,7.332242727E-1,9.348160744E0
3.652556105E0,-4.189853091E-3,8.002619147E-1,9.874884605E0
3.654554177E0,5.327098817E-2,8.098387122E-1,9.874884605E0
3.656552250E0,8.200141042E-2,9.774328470E-1,9.458293915E0
3.658550323E0,8.678980917E-2,8.050503135E-1,9.601945877E0
3.660548240E0,-6.165069342E-2,4.794389009E-1,1.018613148E1
3.662546157E0,-1.047463268E-1,5.656301379E-1,9.884461403E0
3.664544021E0,-1.191115379E-1,5.656301379E-1,9.697713852E0
3.666541886E0,-4.189853091E-3,5.033808947E-1,9.472659111E0
3.668539750E0,4.369417951E-2,5.033808947E-1,9.496601105E0
3.670537615E0,-1.238999367E-1,3.693056107E-1,9.352949142E0
3.672535532E0,-2.196680009E-1,4.848258570E-2,9.601945877E0
3.674533500E0,-6.165069342E-2,6.763619930E-2,1.042555141E1
3.676531521E0,8.200141042E-2,6.805518270E-1,9.376891136E0
3.678529594E0,-2.813187055E-2,1.494580388E0,7.614758492E0
3.680527719E0,-1.622071713E-1,-4.189853091E-3,8.352172852E0
3.682525896E0,-9.516951442E-2,-2.144606113E0,1.437119579E1
3.684524125E0,8.678980917E-2,-1.765723825E-1,1.262342834E1
3.686522407E0,8.678980917E-2,1.389235497E0,6.695384979E0
3.688520740E0,4.848258570E-2,1.097142935E0,7.394492149E0
3.690519125E0,9.636662155E-2,7.284358740E-1,9.113529205E0
3.692517563E0,1.203086376E-1,-1.855506375E-2,1.063145256E1
3.694516052E0,-2.334346622E-2,-6.075286865E-1,1.163222885E1
3.696514542E0,6.763619930E-2,-6.165069342E-2,1.044470501E1
3.698513032E0,1.729810685E-1,4.842272997E-1,9.103952408E0
3.700511521E0,6.284779310E-2,6.087257862E-1,9.056067467E0
3.702510011E0,-4.189853091E-3,6.183025837E-1,9.261969566E0
3.704508396E0,-6.165069342E-2,5.416881442E-1,9.314641953E0
3.706506469E0,-4.249707982E-2,4.698620737E-1,9.980229378E0
3.708504542E0,-1.191115379E-1,6.613982320E-1,9.961075783E0
3.710502615E0,-1.334767491E-1,4.698620737E-1,1.003769016E1
3.712500688E0,-1.574187577E-1,1.442506462E-1,1.026274586E1
3.714498761E0,-2.579752207E-1,5.752069354E-1,9.783905029E0
3.716496834E0,-2.196680009E-1,7.236474752E-1,1.018134308E1
3.718494907E0,-8.559270948E-2,8.625111580E-1,8.864531517E0
3.720492980E0,-2.334346622E-2,6.661866307E-1,9.913191795E0
3.722491052E0,2.932897024E-2,5.847837925E-1,1.007120991E1
3.724489125E0,-5.207388848E-2,5.656301379E-1,9.362525940E0
3.726487198E0,5.805939063E-2,6.661866307E-1,9.233239174E0
3.728485271E0,5.805939063E-2,5.033808947E-1,9.300276756E0
3.730483344E0,-3.292027488E-2,5.799953341E-1,9.635464668E0
3.732481417E0,-8.080431074E-2,5.847837925E-1,9.611522675E0
3.734479490E0,-8.978256024E-3,2.974795699E-1,1.027711105E1
3.736477563E0,1.496376097E-2,5.129576921E-1,9.769539833E0
3.738475688E0,1.442506462E-1,5.512649417E-1,9.846154213E0
3.740473813E0,1.873462796E-1,3.788824081E-1,1.023880386E1
3.742471938E0,8.200141042E-2,2.256535143E-1,1.009036350E1
3.744470115E0,1.634042710E-1,4.315548539E-1,1.007120991E1
3.746468292E0,9.636662155E-2,1.044470549E0,9.166201591E0
3.748466469E0,4.369417951E-2,1.226429820E0,8.543708801E0
3.750464646E0,-1.855506375E-2,7.188590765E-1,9.678560257E0
3.752462823E0,-4.189853091E-3,5.991489887E-1,1.053089619E1
3.754461000E0,6.763619930E-2,6.183025837E-1,1.008557510E1
3.756459177E0,-8.978256024E-3,6.230909824E-1,9.563638687E0
3.758457355E0,5.805939063E-2,6.613982320E-1,9.831789017E0
3.760455532E0,7.721300423E-2,5.033808947E-1,1.002332497E1
3.762453709E0,4.369417951E-2,7.475894690E-1,9.238027573E0
3.764451886E0,8.200141042E-2,8.481459618E-1,9.400833130E0
3.766450063E0,9.636662155E-2,6.853402257E-1,9.238027573E0
3.768448240E0,8.678980917E-2,6.374561787E-1,9.668983459E0
3.770446417E0,-4.249707982E-2,8.050503135E-1,9.510966301E0
3.772444594E0,-8.080431074E-2,7.523778677E-1,9.051279068E0
3.774442771E0,-9.038111567E-2,2.687491477E-1,9.688137054E0
3.776440948E0,-4.189853091E-3,1.538274586E-1,1.050216579E1
3.778439125E0,-6.643909961E-2,2.208651006E-1,9.812635422E0
3.780437302E0,-6.643909961E-2,2.591723204E-1,9.194931984E0
3.782435480E0,-3.770867735E-2,1.921346933E-1,9.707290649E0
3.784433657E0,9.157821536E-2,9.636662155E-2,9.889249802E0
3.786431834E0,2.448071241E-1,2.639607489E-1,9.640253067E0
3.788430011E0,1.825578809E-1,-1.376665942E-2,9.889249802E0
3.790428188E0,2.017114908E-1,-1.478419602E-1,1.015740108E1
3.792426365E0,1.681926697E-1,-8.559270948E-2,1.006642151E1
3.794424542E0,2.543839216E-1,1.975216344E-2,1.013345909E1
3.796422719E0,1.777694821E-1,1.298854351E-1,9.702502251E0
3.798420896E0,1.777694821E-1,-9.038111567E-2,9.798270226E0
3.800419073E0,2.687491477E-1,-2.675520480E-1,1.067933655E1
3.802417250E0,2.926911712E-1,8.678980917E-2,9.769539833E0
3.804415427E0,3.549404144E-1,2.543839216E-1,9.185355186E0
3.806413605E0,3.070563674E-1,4.650736749E-1,9.214085579E0
3.808411625E0,2.543839216E-1,2.783259451E-1,9.961075783E0
3.810409646E0,2.352303118E-1,7.242459804E-2,1.017176628E1
3.812407667E0,4.315548539E-1,2.064998895E-1,1.007599831E1
3.814405688E0,4.507084787E-1,5.895721912E-1,9.333795547E0
3.816403709E0,2.735375464E-1,1.063624144E0,8.586804390E0
3.818401730E0,2.687491477E-1,1.149815321E0,8.371326447E0
3.820399698E0,2.974795699E-1,7.044938207E-1,9.199720383E0
3.822397667E0,1.442506462E-1,1.921346933E-1,1.062187576E1
3.824395636E0,1.825578809E-1,3.932476342E-1,9.894038200E0
3.826393605E0,3.118447661E-1,3.405751884E-1,9.324218750E0
3.828391573E0,2.639607489E-1,5.327098817E-2,1.014303589E1
3.830389542E0,2.017114908E-1,3.405751884E-1,9.793481827E0
3.832387511E0,1.011550203E-1,4.267664552E-1,8.989029884E0
3.834385480E0,1.496376097E-2,-3.770867735E-2,9.769539833E0
3.836383448E0,1.496376097E-2,-3.106476665E-1,1.073200893E1
3.838381417E0,5.805939063E-2,1.975216344E-2,1.033936024E1
3.840379386E0,1.011550203E-1,3.357867897E-1,9.989806175E0
3.842377355E0,1.059434265E-1,2.208651006E-1,1.024838066E1
3.844375323E0,1.825578809E-1,2.160767019E-1,1.062666416E1
3.846373292E0,2.687491477E-1,3.501519859E-1,9.563638687E0
3.848371261E0,2.735375464E-1,1.538274586E-1,1.006642151E1
3.850369230E0,2.304419130E-1,3.740940094E-1,9.903614998E0
3.852367198E0,2.304419130E-1,7.523778677E-1,9.329007149E0
3.854365219E0,1.586158574E-1,9.343371987E-1,8.955511093E0
3.856363292E0,9.157821536E-2,7.715315223E-1,9.683348656E0
3.858361417E0,1.442506462E-1,4.842272997E-1,9.645041466E0
3.860359542E0,1.059434265E-1,1.586158574E-1,1.033457184E1
3.862357667E0,1.059434265E-1,4.363432527E-1,9.697713852E0
3.864355792E0,4.369417951E-2,7.044938207E-1,9.051279068E0
3.866353917E0,6.284779310E-2,7.523778677E-1,8.725667953E0
3.868352042E0,6.284779310E-2,3.357867897E-1,9.932345390E0
3.870350167E0,8.200141042E-2,-4.249707982E-2,1.071764374E1
3.872348292E0,6.763619930E-2,9.157821536E-2,9.544485092E0
3.874346417E0,1.496376097E-2,4.076128304E-1,8.711302757E0
3.876344542E0,8.200141042E-2,-2.813187055E-2,9.099164009E0
3.878342667E0,2.064998895E-1,2.879027426E-1,8.840589523E0
3.880340792E0,2.160767019E-1,9.157821536E-2,9.060855865E0
3.882338917E0,2.208651006E-1,-6.554127336E-1,1.114860058E1
3.884336990E0,9.636662155E-2,-8.996213078E-1,1.124915695E1
3.886334855E0,6.284779310E-2,-3.633201122E-1,9.884461403E0
3.888332719E0,1.394622475E-1,2.687491477E-1,8.586804390E0
3.890330532E0,1.394622475E-1,-1.095347255E-1,9.238027573E0
3.892328344E0,1.011550203E-1,-4.973953962E-1,1.105283260E1
3.894326157E0,1.250970364E-1,-4.734533727E-1,1.062187576E1
3.896323969E0,1.394622475E-1,-2.579752207E-1,1.011909389E1
3.898321782E0,2.495955229E-1,2.879027426E-1,9.731232643E0
3.900319594E0,2.687491477E-1,4.794389009E-1,8.486248016E0
3.902317407E0,1.921346933E-1,4.698620737E-1,9.080010414E0
3.904315219E0,2.112883031E-1,1.059434265E-1,1.015740108E1
3.906313084E0,1.681926697E-1,-2.334346622E-2,1.090439129E1
3.908311000E0,1.394622475E-1,4.411316514E-1,9.769539833E0
3.910308969E0,1.586158574E-1,7.954735160E-1,8.950722694E0
3.912306990E0,8.678980917E-2,8.481459618E-1,8.854954720E0
3.914305063E0,-5.207388848E-2,7.571662664E-1,9.448717117E0
3.916303188E0,-1.376665942E-2,6.709750295E-1,9.961075783E0
3.918301365E0,-8.080431074E-2,4.459200799E-1,9.970652580E0
3.920299542E0,-8.080431074E-2,4.746504724E-1,1.023401546E1
3.922297719E0,-4.728548229E-2,5.368997455E-1,9.530119896E0
3.924295896E0,-9.038111567E-2,7.140706778E-1,9.520543098E0
3.926294073E0,-5.686229095E-2,6.566098332E-1,9.204508781E0
3.928292250E0,-7.122749835E-2,4.602852762E-1,9.961075783E0
3.930290427E0,-4.249707982E-2,1.729810685E-1,1.022922707E1
3.932288605E0,5.386953708E-3,3.501519859E-1,1.022922707E1
3.934286782E0,5.985504249E-4,5.464765429E-1,9.558850288E0
3.936284959E0,3.890577704E-2,4.028244317E-1,1.018613148E1
3.938283136E0,2.454056777E-2,5.512649417E-1,1.035372543E1
3.940281313E0,2.932897024E-2,7.811083198E-1,8.447940826E0
3.942279490E0,1.496376097E-2,5.225345492E-1,9.654618263E0
3.944277667E0,2.932897024E-2,3.884592354E-1,9.721655846E0
3.946275844E0,1.490390599E-1,3.980360329E-1,9.759963036E0
3.948274021E0,7.721300423E-2,2.448071241E-1,1.041597462E1
3.950272198E0,1.107318252E-1,5.560533404E-1,9.850942612E0
3.952270375E0,1.107318252E-1,2.735375464E-1,9.453505516E0
3.954268552E0,9.157821536E-2,7.721300423E-2,1.037766743E1
3.956266730E0,7.242459804E-2,5.129576921E-1,9.582792282E0
3.958264907E0,5.805939063E-2,9.247604012E-1,8.294712067E0
3.960263084E0,7.242459804E-2,2.543839216E-1,9.338583946E0
3.962261261E0,1.011550203E-1,2.591723204E-1,1.022443867E1
3.964259438E0,-4.189853091E-3,3.597288132E-1,9.525331497E0
3.966257615E0,3.411737457E-2,1.496376097E-2,9.333795547E0
3.968255792E0,2.454056777E-2,6.284779310E-2,1.026753426E1
3.970253969E0,1.394622475E-1,-2.334346622E-2,9.654618263E0
3.972252146E0,1.777694821E-1,7.721300423E-2,9.467870712E0
3.974250323E0,1.490390599E-1,-1.191115379E-1,9.764751434E0
3.976248500E0,6.284779310E-2,-4.159925580E-1,1.012388229E1
3.978246677E0,5.985504249E-4,-2.962824702E-1,9.209297180E0
3.980244855E0,-4.189853091E-3,-6.458359361E-1,1.015740108E1
3.982243032E0,5.985504249E-4,-6.165069342E-2,9.448717117E0
3.984241209E0,9.157821536E-2,-5.207388848E-2,8.955511093E0
3.986239386E0,8.200141042E-2,-1.717839688E-1,1.056441498E1
3.988237563E0,1.975216344E-2,-8.182184100E-1,1.106719780E1
3.990235740E0,1.496376097E-2,-7.942764163E-1,1.118211937E1
3.992233917E0,8.200141042E-2,-3.292027488E-2,9.515754700E0
3.994232094E0,5.386953708E-3,3.740940094E-1,8.270770073E0
3.996230271E0,-2.813187055E-2,1.059434265E-1,8.859743118E0
3.998228448E0,-9.038111567E-2,-4.255693555E-1,9.970652580E0
4.000226625E0,-7.122749835E-2,-3.298012912E-1,1.059793377E1
4.002224802E0,8.200141042E-2,4.848258570E-2,9.635464668E0
4.004222980E0,-7.122749835E-2,2.454056777E-2,9.961075783E0
4.006221157E0,-4.189853091E-3,2.831143439E-1,1.021007347E1
4.008219334E0,-7.122749835E-2,9.726444483E-1,8.256404877E0
4.010217511E0,-2.340332121E-1,7.380126715E-1,8.203732491E0
4.012215688E0,-3.537433147E-1,8.678980917E-2,8.993818283E0
4.014213865E0,-3.968389332E-1,-5.740098357E-1,1.099058247E1
4.016212042E0,-3.393780887E-1,-4.734533727E-1,1.110071659E1
4.018210219E0,-2.436100245E-1,-1.143231317E-1,1.022922707E1
4.020208396E0,-1.238999367E-1,1.538274586E-1,1.008078671E1
4.022206573E0,-4.728548229E-2,5.608417392E-1,9.170989990E0
4.024204750E0,-2.436100245E-1,5.368997455E-1,8.993818283E0
4.026202927E0,-4.159925580E-1,1.969230920E-1,9.132682800E0
4.028201105E0,-4.016273320E-1,1.681926697E-1,9.812635422E0
4.030199282E0,-1.717839688E-1,-1.855506375E-2,1.007120991E1
4.032197459E0,-1.191115379E-1,7.242459804E-2,1.029147625E1
4.034195636E0,-6.643909961E-2,4.459200799E-1,1.012867069E1
4.036193761E0,-3.770867735E-2,6.230909824E-1,9.314641953E0
4.038191886E0,7.242459804E-2,9.630676508E-1,9.487024307E0
4.040189959E0,-3.770867735E-2,8.672995567E-1,8.400056839E0
4.042188032E0,-6.643909961E-2,-1.574786186E0,1.226908684E1
4.044186105E0,2.454056777E-2,-4.207809567E-1,1.377743340E1
4.046184177E0,1.298854351E-1,1.312621117E0,7.404068947E0
4.048182250E0,5.327098817E-2,1.441908002E0,7.322665691E0
4.050180323E0,-1.143231317E-1,1.192911029E0,8.591592789E0
4.052178396E0,-1.909375787E-1,6.566098332E-1,9.443928719E0
4.054176469E0,-1.526303589E-1,5.129576921E-1,1.015740108E1
4.056174542E0,-1.861491799E-1,6.997054219E-1,1.003769016E1
4.058172615E0,-3.441664875E-1,6.278793812E-1,8.711302757E0
4.060170688E0,-3.106476665E-1,4.938040972E-1,9.166201591E0
4.062168761E0,-2.483984232E-1,5.321113467E-1,1.029626465E1
4.064166834E0,-3.776853085E-1,3.836708367E-1,1.000895977E1
4.066164907E0,-2.292448133E-1,8.385691643E-1,9.961075783E0
4.068162980E0,-1.909375787E-1,9.103952050E-1,9.238027573E0
4.070161052E0,-2.771288455E-1,5.416881442E-1,9.544485092E0
4.072159125E0,-2.867056429E-1,2.304419130E-1,1.066018295E1
4.074157198E0,-1.717839688E-1,6.518214345E-1,9.884461403E0
4.076155271E0,-2.100912035E-1,3.549404144E-1,1.008557510E1
4.078153344E0,-1.861491799E-1,1.538274586E-1,1.107677460E1
4.080151417E0,-1.622071713E-1,6.661866307E-1,1.003769016E1
4.082149490E0,-1.286883354E-1,1.020528436E0,8.649053574E0
4.084147563E0,-1.047463268E-1,6.374561787E-1,9.611522675E0
4.086145636E0,-8.080431074E-2,5.704185367E-1,1.004247856E1
