"Time (s)","Acceleration x (m/s^2)","Acceleration y (m/s^2)","Acceleration z (m/s^2)"
1.956427300E-2,1.011550203E-1,4.315548539E-1,9.668983459E0
2.157302300E-2,6.284779310E-2,4.459200799E-1,9.659406662E0
2.356000200E-2,3.411737457E-2,4.938040972E-1,9.668983459E0
2.555604400E-2,5.985504249E-4,4.890156984E-1,9.678560257E0
2.755218900E-2,-4.728548229E-2,4.938040972E-1,9.712079048E0
2.954854400E-2,-8.559270948E-2,5.273229480E-1,9.707290649E0
3.154515800E-2,-1.191115379E-1,5.512649417E-1,9.740809441E0
3.354208500E-2,-1.095347255E-1,5.608417392E-1,9.736021042E0
3.553932500E-2,-1.191115379E-1,5.464765429E-1,9.759963036E0
3.753692900E-2,-6.165069342E-2,5.225345492E-1,9.755174637E0
3.953489800E-2,-2.334346622E-2,4.890156984E-1,9.740809441E0
4.153317900E-2,1.017535757E-2,4.650736749E-1,9.736021042E0
4.353177300E-2,2.932897024E-2,4.411316514E-1,9.721655846E0
4.553062700E-2,3.890577704E-2,4.459200799E-1,9.702502251E0
4.752968900E-2,1.975216344E-2,4.554968774E-1,9.712079048E0
4.952890800E-2,1.017535757E-2,4.602852762E-1,9.712079048E0
5.152823100E-2,5.985504249E-4,4.698620737E-1,9.721655846E0
5.352760600E-2,-8.978256024E-3,4.698620737E-1,9.740809441E0
5.552698100E-2,1.017535757E-2,4.698620737E-1,9.750386238E0
5.752521000E-2,1.017535757E-2,4.507084787E-1,9.702502251E0
5.952328300E-2,1.017535757E-2,4.602852762E-1,9.692925453E0
6.152135600E-2,3.411737457E-2,4.650736749E-1,9.702502251E0
6.351942900E-2,3.890577704E-2,4.602852762E-1,9.678560257E0
6.551739800E-2,5.386953708E-3,4.554968774E-1,9.673771858E0
6.751510600E-2,2.932897024E-2,4.602852762E-1,9.640253067E0
6.951276200E-2,2.454056777E-2,4.459200799E-1,9.625887871E0
7.151041900E-2,3.890577704E-2,4.411316514E-1,9.621099472E0
7.350807500E-2,4.848258570E-2,4.315548539E-1,9.601945877E0
7.550573100E-2,5.327098817E-2,4.411316514E-1,9.606734276E0
7.750338700E-2,4.369417951E-2,4.315548539E-1,9.601945877E0
7.950104400E-2,6.284779310E-2,4.363432527E-1,9.582792282E0
8.149870000E-2,5.805939063E-2,4.267664552E-1,9.611522675E0
8.349640800E-2,6.763619930E-2,4.363432527E-1,9.592369080E0
8.549416900E-2,5.327098817E-2,4.363432527E-1,9.616311073E0
8.749198100E-2,5.327098817E-2,4.363432527E-1,9.625887871E0
8.948984600E-2,3.890577704E-2,4.459200799E-1,9.659406662E0
9.148776200E-2,4.848258570E-2,4.411316514E-1,9.673771858E0
9.348578300E-2,4.369417951E-2,4.411316514E-1,9.716867447E0
9.548385600E-2,4.848258570E-2,4.602852762E-1,9.740809441E0
9.748198100E-2,4.848258570E-2,4.650736749E-1,9.779116631E0
9.948015800E-2,3.890577704E-2,4.602852762E-1,9.807847023E0
1.014783870E-1,3.890577704E-2,4.698620737E-1,9.807847023E0
1.034766690E-1,3.411737457E-2,4.794389009E-1,9.822212219E0
1.054749500E-1,2.454056777E-2,4.746504724E-1,9.841365814E0
1.074732310E-1,3.411737457E-2,4.746504724E-1,9.817423820E0
1.094715120E-1,3.890577704E-2,4.794389009E-1,9.836577415E0
1.114696890E-1,3.890577704E-2,4.794389009E-1,9.822212219E0
1.134675540E-1,3.890577704E-2,4.698620737E-1,9.817423820E0
1.154654190E-1,4.369417951E-2,4.842272997E-1,9.812635422E0
1.174632830E-1,3.890577704E-2,4.698620737E-1,9.812635422E0
1.194611480E-1,4.369417951E-2,4.698620737E-1,9.803058624E0
1.214590120E-1,3.890577704E-2,4.746504724E-1,9.807847023E0
1.234568770E-1,4.848258570E-2,4.746504724E-1,9.807847023E0
1.254547410E-1,4.369417951E-2,4.650736749E-1,9.812635422E0
1.274526060E-1,5.327098817E-2,4.650736749E-1,9.812635422E0
1.294504710E-1,2.932897024E-2,4.746504724E-1,9.831789017E0
1.314482310E-1,5.327098817E-2,4.842272997E-1,9.807847023E0
1.334459910E-1,4.369417951E-2,4.794389009E-1,9.798270226E0
1.354437520E-1,3.890577704E-2,4.698620737E-1,9.812635422E0
1.374415120E-1,6.284779310E-2,4.842272997E-1,9.812635422E0
1.394392730E-1,8.200141042E-2,4.650736749E-1,9.831789017E0
1.414370330E-1,7.721300423E-2,4.650736749E-1,9.850942612E0
1.434347940E-1,1.059434265E-1,4.698620737E-1,9.836577415E0
1.454325540E-1,8.678980917E-2,4.698620737E-1,9.836577415E0
1.474303140E-1,9.157821536E-2,4.698620737E-1,9.846154213E0
1.494280750E-1,1.155202314E-1,4.938040972E-1,9.807847023E0
1.514258870E-1,1.203086376E-1,5.081692934E-1,9.769539833E0
1.534237520E-1,1.107318252E-1,5.225345492E-1,9.759963036E0
1.554216160E-1,1.250970364E-1,5.656301379E-1,9.750386238E0
1.574194810E-1,1.777694821E-1,5.225345492E-1,9.740809441E0
1.594173460E-1,1.634042710E-1,4.650736749E-1,9.745597839E0
1.614152100E-1,1.634042710E-1,4.267664552E-1,9.755174637E0
1.634130750E-1,1.586158574E-1,3.693056107E-1,9.759963036E0
1.654109390E-1,1.490390599E-1,3.453635871E-1,9.755174637E0
1.674087000E-1,1.490390599E-1,3.405751884E-1,9.759963036E0
1.694063040E-1,1.586158574E-1,3.549404144E-1,9.750386238E0
1.714039080E-1,1.634042710E-1,3.597288132E-1,9.740809441E0
1.734015120E-1,1.681926697E-1,3.645172119E-1,9.740809441E0
1.753991160E-1,1.825578809E-1,3.788824081E-1,9.745597839E0
1.773967210E-1,1.921346933E-1,4.028244317E-1,9.721655846E0
1.793943250E-1,2.112883031E-1,4.028244317E-1,9.726444244E0
1.813919290E-1,2.064998895E-1,4.124012291E-1,9.721655846E0
1.833895850E-1,2.160767019E-1,4.363432527E-1,9.755174637E0
1.853872940E-1,1.969230920E-1,4.219780564E-1,9.740809441E0
1.873850540E-1,2.304419130E-1,4.363432527E-1,9.731232643E0
1.893828660E-1,2.591723204E-1,4.315548539E-1,9.745597839E0
1.913807310E-1,2.639607489E-1,4.124012291E-1,9.716867447E0
1.933786480E-1,2.639607489E-1,4.076128304E-1,9.731232643E0
1.953766160E-1,2.687491477E-1,4.076128304E-1,9.707290649E0
1.973746370E-1,2.831143439E-1,3.788824081E-1,9.688137054E0
1.993727100E-1,2.974795699E-1,4.076128304E-1,9.688137054E0
2.013708350E-1,3.118447661E-1,4.315548539E-1,9.659406662E0
2.033690120E-1,3.118447661E-1,4.219780564E-1,9.597157478E0
2.053672410E-1,2.591723204E-1,4.411316514E-1,9.563638687E0
2.073654710E-1,2.448071241E-1,4.938040972E-1,9.563638687E0
2.093637000E-1,2.064998895E-1,5.464765429E-1,9.491812706E0
2.113619290E-1,1.394622475E-1,5.177460909E-1,9.487024307E0
2.133601580E-1,9.157821536E-2,4.842272997E-1,9.544485092E0
2.153579710E-1,7.242459804E-2,4.554968774E-1,9.582792282E0
2.173557310E-1,4.848258570E-2,4.171896577E-1,9.587580681E0
2.193534910E-1,7.242459804E-2,4.076128304E-1,9.563638687E0
2.213512520E-1,7.242459804E-2,3.740940094E-1,9.549273491E0
2.233490120E-1,6.284779310E-2,3.214215636E-1,9.506177902E0
2.253468250E-1,6.284779310E-2,2.831143439E-1,9.510966301E0
2.273446890E-1,6.763619930E-2,2.639607489E-1,9.549273491E0
2.293426060E-1,6.763619930E-2,2.017114908E-1,9.549273491E0
2.313405750E-1,6.284779310E-2,1.873462796E-1,9.554061890E0
2.333385960E-1,4.369417951E-2,2.017114908E-1,9.558850288E0
2.353366690E-1,4.369417951E-2,2.304419130E-1,9.525331497E0
2.373347940E-1,1.496376097E-2,2.639607489E-1,9.520543098E0
2.393329710E-1,-4.189853091E-3,2.926911712E-1,9.463082314E0
2.413312000E-1,-2.813187055E-2,3.214215636E-1,9.463082314E0
2.433294810E-1,-7.601590455E-2,3.597288132E-1,9.453505516E0
2.453278140E-1,-8.080431074E-2,3.788824081E-1,9.419986725E0
2.473261480E-1,-7.122749835E-2,3.932476342E-1,9.443928719E0
2.493244810E-1,-7.601590455E-2,4.124012291E-1,9.458293915E0
2.513228140E-1,-7.601590455E-2,4.507084787E-1,9.472659111E0
2.533211480E-1,-9.995792061E-2,4.938040972E-1,9.544485092E0
2.553194810E-1,-8.080431074E-2,5.368997455E-1,9.573215485E0
2.573176580E-1,-9.516951442E-2,5.656301379E-1,9.568427086E0
2.593157830E-1,-1.047463268E-1,6.230909824E-1,9.558850288E0
2.613139080E-1,-1.478419602E-1,6.326677799E-1,9.611522675E0
2.633120330E-1,-1.957259923E-1,6.566098332E-1,9.630676270E0
2.653101580E-1,-2.196680009E-1,7.188590765E-1,9.625887871E0
2.673082310E-1,-2.771288455E-1,7.475894690E-1,9.664195061E0
2.693063040E-1,-3.202244639E-1,8.098387122E-1,9.683348656E0
2.713043770E-1,-3.776853085E-1,8.289923668E-1,9.702502251E0
2.733024500E-1,-4.112041295E-1,8.433575630E-1,9.707290649E0
2.753005230E-1,-4.159925580E-1,8.912416101E-1,9.702502251E0
2.772985960E-1,-4.207809567E-1,8.720879555E-1,9.697713852E0
2.792966690E-1,-4.351461530E-1,8.481459618E-1,9.692925453E0
2.812946370E-1,-4.016273320E-1,8.672995567E-1,9.712079048E0
2.832924500E-1,-3.824737072E-1,8.625111580E-1,9.692925453E0
2.852902620E-1,-3.345896900E-1,8.481459618E-1,9.692925453E0
2.872880750E-1,-3.058592677E-1,8.672995567E-1,9.683348656E0
2.892858870E-1,-2.771288455E-1,8.625111580E-1,9.649829865E0
2.912837000E-1,-2.388216257E-1,8.433575630E-1,9.688137054E0
2.932815120E-1,-2.053027898E-1,8.577227592E-1,9.664195061E0
2.952793250E-1,-1.765723825E-1,8.768763542E-1,9.640253067E0
2.972771370E-1,-1.526303589E-1,8.146271110E-1,9.678560257E0
2.992750020E-1,-1.334767491E-1,7.667431235E-1,9.683348656E0
3.012729190E-1,-1.238999367E-1,7.906851172E-1,9.668983459E0
3.032708870E-1,-8.559270948E-2,7.715315223E-1,9.692925453E0
3.052689080E-1,-5.686229095E-2,7.954735160E-1,9.712079048E0
3.072669290E-1,-3.292027488E-2,7.954735160E-1,9.702502251E0
3.092649500E-1,-1.855506375E-2,8.481459618E-1,9.736021042E0
3.112629710E-1,-2.334346622E-2,8.672995567E-1,9.827000618E0
3.132609910E-1,-4.189853091E-3,8.816647530E-1,9.980229378E0
3.152590120E-1,5.386953708E-3,8.720879555E-1,9.994594574E0
3.172570330E-1,-8.978256024E-3,9.487023950E-1,9.903614998E0
3.192550540E-1,-1.855506375E-2,9.487023950E-1,9.913191795E0
3.212530750E-1,-3.770867735E-2,9.439139962E-1,9.927556992E0
3.232510960E-1,-5.686229095E-2,9.582792521E-1,9.989806175E0
3.252491160E-1,-6.165069342E-2,9.726444483E-1,1.000895977E1
3.272471370E-1,-8.080431074E-2,1.025316834E0,9.980229378E0
3.292451580E-1,-4.728548229E-2,1.039682031E0,9.937133789E0
3.312431790E-1,-2.334346622E-2,1.006163239E0,9.994594574E0
3.332410960E-1,1.017535757E-2,1.001374841E0,1.006642151E1
3.352390120E-1,7.242459804E-2,1.044470549E0,1.007120991E1
3.372369290E-1,1.250970364E-1,1.039682031E0,1.009515190E1
3.392348460E-1,1.634042710E-1,1.015740037E0,1.007599831E1
3.412327620E-1,1.394622475E-1,9.870096445E-1,9.994594574E0
3.432306790E-1,1.490390599E-1,1.015740037E0,9.874884605E0
3.452286480E-1,1.250970364E-1,1.010951638E0,9.783905029E0
3.472266160E-1,1.155202314E-1,1.015740037E0,9.793481827E0
3.492246370E-1,1.394622475E-1,9.917980433E-1,9.779116631E0
3.512227100E-1,1.442506462E-1,1.015740037E0,9.716867447E0
3.532208350E-1,1.394622475E-1,1.001374841E0,9.683348656E0
3.552190120E-1,1.394622475E-1,9.678560495E-1,9.697713852E0
3.572172410E-1,1.490390599E-1,9.295488000E-1,9.697713852E0
3.592154710E-1,1.586158574E-1,9.439139962E-1,9.707290649E0
3.612137000E-1,1.203086376E-1,9.391255975E-1,9.654618263E0
3.632119290E-1,1.346738487E-1,8.768763542E-1,9.712079048E0
3.652101580E-1,1.107318252E-1,8.529343605E-1,9.774328232E0
3.672083870E-1,8.678980917E-2,8.864531517E-1,9.798270226E0
3.692066160E-1,8.678980917E-2,9.247604012E-1,9.740809441E0
3.712048460E-1,9.157821536E-2,9.487023950E-1,9.731232643E0
3.732030230E-1,1.155202314E-1,9.630676508E-1,9.759963036E0
3.752010440E-1,9.157821536E-2,9.056068063E-1,9.827000618E0
3.771990640E-1,7.721300423E-2,9.678560495E-1,9.750386238E0
3.791970850E-1,8.678980917E-2,1.006163239E0,9.673771858E0
3.811951060E-1,7.721300423E-2,1.020528436E0,9.712079048E0
3.831931270E-1,6.763619930E-2,1.010951638E0,9.798270226E0
3.851911480E-1,9.157821536E-2,1.058835745E0,9.779116631E0
3.871891690E-1,1.011550203E-1,1.092354536E0,9.721655846E0
3.891871890E-1,1.346738487E-1,1.130661726E0,9.793481827E0
3.911852100E-1,1.538274586E-1,1.159392118E0,9.788693428E0
3.931831790E-1,9.636662155E-2,1.149815321E0,9.692925453E0
3.951810440E-1,1.975216344E-2,1.130661726E0,9.779116631E0
3.971788040E-1,-2.813187055E-2,1.097142935E0,9.731232643E0
3.991765640E-1,-7.601590455E-2,1.063624144E0,9.740809441E0
4.011743250E-1,-8.559270948E-2,1.063624144E0,9.759963036E0
4.031720850E-1,-1.143231317E-1,1.054047346E0,9.697713852E0
4.051698460E-1,-1.286883354E-1,1.030105233E0,9.683348656E0
4.071676060E-1,-1.622071713E-1,9.774328470E-1,9.740809441E0
4.091654190E-1,-1.765723825E-1,8.577227592E-1,9.817423820E0
4.111632310E-1,-2.100912035E-1,8.481459618E-1,9.827000618E0
4.131610440E-1,-2.100912035E-1,8.816647530E-1,9.702502251E0
4.151588560E-1,-2.340332121E-1,8.816647530E-1,9.649829865E0
4.171566690E-1,-2.675520480E-1,7.906851172E-1,9.783905029E0
4.191545330E-1,-2.819172442E-1,7.428010702E-1,9.855731010E0
4.211523980E-1,-2.914940715E-1,7.523778677E-1,9.755174637E0
4.231502620E-1,-3.393780887E-1,6.709750295E-1,9.731232643E0
4.251481270E-1,-3.154360652E-1,6.805518270E-1,9.649829865E0
4.271459910E-1,-2.627636492E-1,6.901286244E-1,9.606734276E0
4.291438560E-1,-1.957259923E-1,6.997054219E-1,9.645041466E0
4.311417210E-1,-1.478419602E-1,6.949170232E-1,9.654618263E0
4.331396370E-1,-1.095347255E-1,7.428010702E-1,9.659406662E0
4.351376060E-1,-5.207388848E-2,7.188590765E-1,9.649829865E0
4.371356270E-1,-8.978256024E-3,6.853402257E-1,9.731232643E0
4.391337000E-1,-8.978256024E-3,6.901286244E-1,9.903614998E0
4.411318250E-1,4.369417951E-2,7.523778677E-1,9.817423820E0
4.431299500E-1,3.890577704E-2,7.811083198E-1,9.736021042E0
4.451280750E-1,3.890577704E-2,8.050503135E-1,9.678560257E0
4.471262000E-1,-2.813187055E-2,8.002619147E-1,9.736021042E0
4.491243250E-1,-4.728548229E-2,7.763199210E-1,9.668983459E0
4.511224500E-1,-7.601590455E-2,8.289923668E-1,9.611522675E0
4.531204190E-1,-7.601590455E-2,8.481459618E-1,9.501389503E0
4.551183870E-1,-4.249707982E-2,8.002619147E-1,9.611522675E0
4.571163560E-1,-2.334346622E-2,7.715315223E-1,9.769539833E0
4.591143250E-1,5.985504249E-4,7.523778677E-1,9.702502251E0
4.611122940E-1,5.386953708E-3,7.332242727E-1,9.659406662E0
4.631102620E-1,-5.207388848E-2,6.661866307E-1,9.673771858E0
4.651082310E-1,-5.207388848E-2,6.661866307E-1,9.668983459E0
4.671059910E-1,5.386953708E-3,7.188590765E-1,9.324218750E0
4.691035960E-1,1.394622475E-1,5.656301379E-1,9.084798813E0
4.711012000E-1,6.763619930E-2,5.991489887E-1,9.769539833E0
4.730988040E-1,1.203086376E-1,5.847837925E-1,9.999382973E0
4.750964080E-1,7.721300423E-2,5.799953341E-1,1.008557510E1
4.770940120E-1,5.386953708E-3,6.997054219E-1,9.999382973E0
4.790916690E-1,6.763619930E-2,8.816647530E-1,9.946710587E0
4.810893770E-1,1.155202314E-1,9.199720025E-1,9.750386238E0
4.830871370E-1,1.634042710E-1,9.391255975E-1,9.664195061E0
4.850849500E-1,1.729810685E-1,1.020528436E0,9.736021042E0
4.870828140E-1,1.969230920E-1,1.025316834E0,9.697713852E0
4.890807310E-1,1.921346933E-1,1.015740037E0,9.668983459E0
4.910787000E-1,1.825578809E-1,9.678560495E-1,9.788693428E0
4.930767210E-1,2.064998895E-1,9.247604012E-1,9.750386238E0
4.950747940E-1,1.586158574E-1,8.720879555E-1,9.736021042E0
4.970729190E-1,1.538274586E-1,7.954735160E-1,9.898826599E0
4.990710440E-1,1.873462796E-1,7.906851172E-1,9.994594574E0
5.010691690E-1,2.064998895E-1,8.864531517E-1,9.774328232E0
5.030672940E-1,1.729810685E-1,9.534908533E-1,9.458293915E0
5.050654190E-1,1.394622475E-1,8.960300088E-1,9.410409927E0
5.070635440E-1,1.155202314E-1,8.146271110E-1,9.621099472E0
5.090616690E-1,1.586158574E-1,7.475894690E-1,9.702502251E0
5.110597940E-1,1.729810685E-1,6.278793812E-1,9.831789017E0
5.130579190E-1,2.400187254E-1,6.374561787E-1,9.946710587E0
5.150560440E-1,2.687491477E-1,7.236474752E-1,9.783905029E0
5.170541690E-1,3.070563674E-1,7.619546652E-1,9.491812706E0
5.190521370E-1,2.974795699E-1,7.523778677E-1,9.496601105E0
5.210497940E-1,3.357867897E-1,7.475894690E-1,9.630676270E0
5.230474500E-1,3.309983909E-1,6.901286244E-1,9.793481827E0
5.250451060E-1,3.597288132E-1,7.140706778E-1,9.721655846E0
5.270427620E-1,3.118447661E-1,6.901286244E-1,9.745597839E0
5.290404190E-1,2.591723204E-1,6.374561787E-1,9.793481827E0
5.310380750E-1,2.831143439E-1,6.374561787E-1,9.879673004E0
5.330357830E-1,2.448071241E-1,6.613982320E-1,9.822212219E0
5.350335440E-1,2.017114908E-1,7.523778677E-1,9.630676270E0
5.370313560E-1,1.107318252E-1,7.284358740E-1,9.515754700E0
5.390292210E-1,4.848258570E-2,7.332242727E-1,9.563638687E0
5.410271370E-1,2.932897024E-2,7.044938207E-1,9.707290649E0
5.430251060E-1,4.848258570E-2,7.475894690E-1,9.812635422E0
5.450231270E-1,8.200141042E-2,7.428010702E-1,9.807847023E0
5.470212000E-1,3.890577704E-2,6.566098332E-1,9.946710587E0
5.490193250E-1,5.985504249E-4,6.949170232E-1,9.946710587E0
5.510174500E-1,5.386953708E-3,7.571662664E-1,9.779116631E0
5.530155750E-1,-1.376665942E-2,6.757634282E-1,9.692925453E0
5.550137000E-1,-2.813187055E-2,7.188590765E-1,9.506177902E0
5.570118250E-1,-6.643909961E-2,7.428010702E-1,9.386467934E0
5.590098980E-1,-8.559270948E-2,5.368997455E-1,9.587580681E0
5.610077620E-1,-1.855506375E-2,4.459200799E-1,9.812635422E0
5.630056270E-1,2.932897024E-2,4.602852762E-1,9.807847023E0
5.650034910E-1,1.346738487E-1,5.512649417E-1,9.640253067E0
5.670013560E-1,1.298854351E-1,4.794389009E-1,9.482235909E0
5.689992210E-1,9.157821536E-2,3.836708367E-1,9.587580681E0
5.709970850E-1,1.490390599E-1,3.693056107E-1,9.640253067E0
5.729949500E-1,3.597288132E-1,2.926911712E-1,9.118317604E0
5.749928140E-1,1.490390599E-1,4.315548539E-1,9.487024307E0
5.769906790E-1,9.157821536E-2,3.645172119E-1,9.616311073E0
5.789885440E-1,1.496376097E-2,3.262099922E-1,9.774328232E0
5.809864080E-1,-1.191115379E-1,2.256535143E-1,1.004247856E1
5.829842730E-1,-2.148796022E-1,2.304419130E-1,1.033457184E1
5.849821370E-1,-2.627636492E-1,3.788824081E-1,1.035851383E1
5.869800020E-1,-2.483984232E-1,5.177460909E-1,9.822212219E0
5.889778660E-1,-2.292448133E-1,5.464765429E-1,9.429563522E0
5.909757310E-1,-2.483984232E-1,5.943605900E-1,9.343372345E0
5.929735960E-1,-2.005143911E-1,5.799953341E-1,9.434351921E0
5.949714600E-1,-1.526303589E-1,5.177460909E-1,9.568427086E0
5.969693250E-1,-1.047463268E-1,3.022679687E-1,9.779116631E0
5.989671890E-1,-8.559270948E-2,2.687491477E-1,9.908403397E0
6.009650540E-1,-5.207388848E-2,2.974795699E-1,9.736021042E0
6.029629190E-1,-6.165069342E-2,2.974795699E-1,9.678560257E0
6.049607830E-1,-7.601590455E-2,2.064998895E-1,9.664195061E0
6.069586480E-1,-4.728548229E-2,1.825578809E-1,9.611522675E0
6.089565120E-1,-3.770867735E-2,2.256535143E-1,9.611522675E0
6.109543770E-1,1.975216344E-2,2.352303118E-1,9.635464668E0
6.129522410E-1,4.848258570E-2,2.064998895E-1,9.635464668E0
6.149501060E-1,4.369417951E-2,2.017114908E-1,9.793481827E0
6.169479710E-1,8.200141042E-2,2.687491477E-1,9.769539833E0
6.189458350E-1,7.242459804E-2,2.926911712E-1,9.697713852E0
6.209437000E-1,5.805939063E-2,2.591723204E-1,9.712079048E0
6.229415640E-1,6.763619930E-2,3.693056107E-1,9.678560257E0
6.249394290E-1,1.059434265E-1,4.363432527E-1,9.568427086E0
6.269372940E-1,9.157821536E-2,3.980360329E-1,9.817423820E0
6.289351580E-1,6.763619930E-2,4.411316514E-1,9.961075783E0
6.309330230E-1,8.678980917E-2,5.225345492E-1,9.884461403E0
6.329308870E-1,9.157821536E-2,5.943605900E-1,9.673771858E0
6.349287520E-1,5.327098817E-2,5.895721912E-1,9.645041466E0
6.369266160E-1,7.242459804E-2,5.943605900E-1,9.721655846E0
6.389244810E-1,5.805939063E-2,6.949170232E-1,9.654618263E0
6.409223460E-1,2.932897024E-2,6.470330358E-1,9.736021042E0
6.429202100E-1,5.985504249E-4,5.225345492E-1,9.822212219E0
6.449181270E-1,-3.292027488E-2,4.554968774E-1,9.908403397E0
6.469160960E-1,-4.249707982E-2,5.560533404E-1,9.716867447E0
6.489141160E-1,-4.728548229E-2,6.278793812E-1,9.300276756E0
6.509121890E-1,-7.601590455E-2,4.650736749E-1,9.400833130E0
6.529102620E-1,-3.770867735E-2,3.597288132E-1,9.951498985E0
6.549083350E-1,5.327098817E-2,3.597288132E-1,9.908403397E0
6.569064080E-1,4.848258570E-2,3.549404144E-1,9.645041466E0
6.589044810E-1,6.763619930E-2,3.405751884E-1,9.640253067E0
6.609025540E-1,1.490390599E-1,5.273229480E-1,9.640253067E0
6.629006270E-1,1.634042710E-1,6.566098332E-1,9.487024307E0
6.648987000E-1,1.921346933E-1,4.890156984E-1,9.530119896E0
6.668967730E-1,2.400187254E-1,3.884592354E-1,9.822212219E0
6.688946370E-1,2.926911712E-1,5.177460909E-1,1.003290176E1
6.708925020E-1,3.740940094E-1,6.853402257E-1,9.807847023E0
6.728903660E-1,3.645172119E-1,6.566098332E-1,9.453505516E0
6.748882310E-1,2.448071241E-1,6.661866307E-1,9.305065155E0
6.768860960E-1,2.208651006E-1,5.991489887E-1,9.688137054E0
6.788839600E-1,2.926911712E-1,6.230909824E-1,9.985017776E0
6.808817730E-1,3.453635871E-1,6.422445774E-1,9.961075783E0
6.828795850E-1,2.879027426E-1,7.475894690E-1,9.726444244E0
6.848773980E-1,2.064998895E-1,7.715315223E-1,9.635464668E0
6.868752100E-1,2.448071241E-1,7.763199210E-1,9.544485092E0
6.888729190E-1,2.208651006E-1,7.763199210E-1,9.740809441E0
6.908704710E-1,3.022679687E-1,6.757634282E-1,9.985017776E0
6.928680230E-1,3.788824081E-1,3.118447661E-1,1.002811337E1
6.948655750E-1,3.501519859E-1,1.059434265E-1,9.874884605E0
6.968631270E-1,3.740940094E-1,-1.430535465E-1,9.985017776E0
6.988606790E-1,2.687491477E-1,-1.286883354E-1,9.865307808E0
7.008582310E-1,1.777694821E-1,3.022679687E-1,9.343372345E0
7.028557830E-1,2.926911712E-1,2.831143439E-1,9.558850288E0
7.048533350E-1,3.884592354E-1,3.980360329E-1,9.707290649E0
7.068509390E-1,3.214215636E-1,6.230909824E-1,9.879673004E0
7.088485960E-1,3.884592354E-1,9.247604012E-1,9.601945877E0
7.108463040E-1,3.740940094E-1,9.103952050E-1,9.094375610E0
7.128440640E-1,3.166331649E-1,5.799953341E-1,9.094375610E0
7.148418770E-1,3.070563674E-1,2.495955229E-1,1.104804420E1
7.168397410E-1,4.076128304E-1,7.763199210E-1,1.100973606E1
7.188376060E-1,4.219780564E-1,1.595136881E0,8.840589523E0
7.208354710E-1,2.352303118E-1,1.647809267E0,8.371326447E0
7.228333350E-1,1.681926697E-1,9.822212458E-1,9.759963036E0
7.248312000E-1,-3.292027488E-2,7.428010702E-1,1.053568459E1
7.268290640E-1,-6.165069342E-2,9.582792521E-1,1.001853657E1
7.288269290E-1,-8.559270948E-2,9.822212458E-1,9.400833130E0
7.308245850E-1,-2.196680009E-1,6.709750295E-1,9.290699959E0
7.328222410E-1,-4.447229803E-1,4.890156984E-1,1.007599831E1
7.348198980E-1,-3.250128925E-1,5.081692934E-1,1.001374817E1
7.368175540E-1,-3.010708690E-1,5.177460909E-1,9.472659111E0
7.388152100E-1,-4.734533727E-1,1.969230920E-1,9.419986725E0
7.408128660E-1,-5.692214370E-1,-1.376665942E-2,9.793481827E0
7.428105230E-1,-7.080851793E-1,-7.122749835E-2,1.000895977E1
7.448081790E-1,-7.416039705E-1,-4.249707982E-2,9.788693428E0
7.468058350E-1,-8.086416125E-1,1.250970364E-1,9.525331497E0
7.488034910E-1,-8.277952671E-1,3.836708367E-1,9.477447510E0
7.508011480E-1,-9.091981053E-1,3.645172119E-1,9.525331497E0
7.527988560E-1,-9.379284978E-1,1.490390599E-1,1.001374817E1
7.547966160E-1,-8.996213078E-1,1.969230920E-1,9.913191795E0
7.567944290E-1,-8.804676533E-1,2.160767019E-1,9.740809441E0
7.587922410E-1,-9.379284978E-1,1.825578809E-1,9.889249802E0
7.607900540E-1,-1.057638645E0,1.969230920E-1,9.927556992E0
7.627878660E-1,-1.072003841E0,3.405751884E-1,9.501389503E0
7.647856790E-1,-1.076792240E0,2.352303118E-1,9.645041466E0
7.667834910E-1,-9.618705511E-1,8.200141042E-2,1.010472870E1
7.687813040E-1,-9.139865041E-1,2.112883031E-1,1.013345909E1
7.707791160E-1,-8.325836658E-1,2.974795699E-1,9.352949142E0
7.727769290E-1,-8.038532138E-1,1.586158574E-1,9.510966301E0
7.747747410E-1,-5.069721937E-1,2.160767019E-1,9.788693428E0
7.767725540E-1,-3.968389332E-1,3.836708367E-1,9.961075783E0
7.787703660E-1,-3.202244639E-1,3.788824081E-1,9.578003883E0
7.807681790E-1,-2.579752207E-1,2.400187254E-1,9.597157478E0
7.827659910E-1,-1.622071713E-1,1.490390599E-1,9.913191795E0
7.847638040E-1,9.157821536E-2,2.160767019E-1,9.946710587E0
7.867616160E-1,2.256535143E-1,4.650736749E-1,9.601945877E0
7.887594290E-1,2.926911712E-1,5.129576921E-1,9.214085579E0
7.907572410E-1,2.974795699E-1,3.405751884E-1,9.649829865E0
7.927550540E-1,4.028244317E-1,1.825578809E-1,1.000895977E1
7.947529190E-1,4.698620737E-1,3.118447661E-1,9.769539833E0
7.967508350E-1,5.799953341E-1,3.070563674E-1,9.285911560E0
7.987488040E-1,5.608417392E-1,1.250970364E-1,9.889249802E0
8.007468250E-1,4.794389009E-1,7.242459804E-2,9.985017776E0
8.027448980E-1,5.081692934E-1,2.543839216E-1,9.396044731E0
8.047429710E-1,5.943605900E-1,3.166331649E-1,9.185355186E0
8.067410440E-1,6.518214345E-1,-2.334346622E-2,9.965864182E0
8.087391160E-1,7.140706778E-1,-1.191115379E-1,9.683348656E0
8.107371890E-1,6.613982320E-1,2.448071241E-1,9.391256332E0
8.127351580E-1,5.991489887E-1,9.636662155E-2,9.769539833E0
8.147328660E-1,5.943605900E-1,9.636662155E-2,1.010472870E1
8.167304710E-1,4.650736749E-1,1.394622475E-1,1.007120991E1
8.187280750E-1,3.836708367E-1,2.017114908E-1,9.759963036E0
8.207256790E-1,4.315548539E-1,4.938040972E-1,8.864531517E0
8.227232830E-1,4.219780564E-1,4.746504724E-1,9.113529205E0
8.247208870E-1,5.273229480E-1,8.200141042E-2,1.022922707E1
8.267184910E-1,6.422445774E-1,9.636662155E-2,1.058356857E1
8.287161480E-1,6.518214345E-1,4.746504724E-1,9.448717117E0
8.307138560E-1,5.368997455E-1,5.943605900E-1,8.960299492E0
8.327116160E-1,3.501519859E-1,3.214215636E-1,9.683348656E0
8.347094290E-1,3.453635871E-1,2.208651006E-1,1.029626465E1
8.367072940E-1,3.070563674E-1,3.118447661E-1,9.927556992E0
8.387052100E-1,2.448071241E-1,3.645172119E-1,9.391256332E0
8.407031790E-1,1.586158574E-1,2.735375464E-1,9.611522675E0
8.427012000E-1,7.242459804E-2,8.200141042E-2,1.037287903E1
8.446992730E-1,1.203086376E-1,1.586158574E-1,9.922768593E0
8.466973980E-1,2.932897024E-2,3.022679687E-1,9.329007149E0
8.486955230E-1,3.890577704E-2,4.076128304E-1,9.487024307E0
8.506936480E-1,7.242459804E-2,1.586158574E-1,9.841365814E0
8.526917730E-1,5.805939063E-2,1.155202314E-1,9.999382973E0
8.546898980E-1,7.721300423E-2,4.076128304E-1,9.549273491E0
8.566880230E-1,5.386953708E-3,2.400187254E-1,9.429563522E0
8.586861480E-1,-8.080431074E-2,3.411737457E-2,1.001374817E1
8.606842730E-1,-1.574187577E-1,1.975216344E-2,1.006163311E1
8.626823980E-1,-2.627636492E-1,1.059434265E-1,9.625887871E0
8.646804710E-1,-2.675520480E-1,1.777694821E-1,9.645041466E0
8.666785440E-1,-1.717839688E-1,2.454056777E-2,9.520543098E0
8.686765640E-1,1.777694821E-1,-8.182184100E-1,1.008078671E1
8.706745330E-1,2.591723204E-1,-1.100734234E0,9.692925453E0
8.726725020E-1,1.203086376E-1,-1.081580639E0,9.285911560E0
8.746704710E-1,-1.478419602E-1,-8.900445104E-1,9.683348656E0
8.766684390E-1,-4.303577542E-1,-6.314706802E-1,9.879673004E0
8.786663560E-1,-3.872621357E-1,-5.069721937E-1,9.625887871E0
8.806642210E-1,-3.585317135E-1,-3.202244639E-1,9.396044731E0
8.826620850E-1,-4.255693555E-1,-4.189853091E-3,9.424775124E0
8.846599500E-1,-5.835866928E-1,8.200141042E-2,1.052610779E1
8.866578140E-1,-6.937199235E-1,2.256535143E-1,9.549273491E0
8.886556790E-1,-5.787982345E-1,2.639607489E-1,1.013824749E1
8.906535440E-1,-3.872621357E-1,1.490390599E-1,9.712079048E0
8.926514600E-1,-5.117605925E-1,2.495955229E-1,9.774328232E0
8.946493770E-1,-3.537433147E-1,2.974795699E-1,9.927556992E0
8.966473460E-1,-3.681085110E-1,4.698620737E-1,9.611522675E0
8.986453140E-1,-3.441664875E-1,5.368997455E-1,9.793481827E0
9.006432830E-1,-1.526303589E-1,4.650736749E-1,9.793481827E0
9.026413040E-1,8.200141042E-2,3.405751884E-1,1.008557510E1
9.046393250E-1,2.304419130E-1,2.160767019E-1,1.028189945E1
9.066373460E-1,3.549404144E-1,3.405751884E-1,9.692925453E0
9.086353660E-1,4.171896577E-1,3.549404144E-1,9.410409927E0
9.106333870E-1,5.177460909E-1,3.884592354E-1,9.338583946E0
9.126314080E-1,6.566098332E-1,4.219780564E-1,9.257181168E0
9.146294290E-1,6.757634282E-1,4.602852762E-1,9.625887871E0
9.166274500E-1,6.566098332E-1,5.129576921E-1,9.477447510E0
9.186254710E-1,6.230909824E-1,4.938040972E-1,9.568427086E0
9.206234910E-1,5.752069354E-1,3.405751884E-1,9.956287384E0
9.226215640E-1,5.416881442E-1,3.070563674E-1,1.031541824E1
9.246196890E-1,4.794389009E-1,5.704185367E-1,9.554061890E0
9.266178140E-1,5.416881442E-1,6.613982320E-1,9.218873978E0
9.286159390E-1,5.608417392E-1,5.416881442E-1,9.506177902E0
9.306140640E-1,5.895721912E-1,3.932476342E-1,1.008557510E1
9.326121890E-1,5.847837925E-1,3.022679687E-1,1.016697788E1
9.346103140E-1,6.087257862E-1,3.166331649E-1,1.001374817E1
9.366084390E-1,5.656301379E-1,3.836708367E-1,9.807847023E0
9.386065640E-1,4.938040972E-1,4.363432527E-1,9.621099472E0
9.406044290E-1,5.033808947E-1,5.464765429E-1,9.515754700E0
9.426022940E-1,3.309983909E-1,5.560533404E-1,9.324218750E0
9.446001580E-1,3.022679687E-1,4.363432527E-1,9.103952408E0
9.465980230E-1,3.070563674E-1,2.304419130E-1,9.879673004E0
9.485958870E-1,1.203086376E-1,3.411737457E-2,9.937133789E0
9.505937520E-1,5.805939063E-2,-8.559270948E-2,1.007120991E1
9.525916690E-1,-1.376665942E-2,-1.855506375E-2,9.908403397E0
9.545896370E-1,-8.080431074E-2,5.805939063E-2,9.520543098E0
9.565876580E-1,-1.478419602E-1,-5.207388848E-2,9.554061890E0
9.585857310E-1,-2.340332121E-1,-2.579752207E-1,1.001853657E1
9.605838560E-1,-1.957259923E-1,-1.334767491E-1,9.822212219E0
9.625820330E-1,-1.047463268E-1,-1.622071713E-1,9.472659111E0
9.645802620E-1,-9.995792061E-2,-3.633201122E-1,1.001374817E1
9.665784910E-1,-1.526303589E-1,-2.483984232E-1,9.807847023E0
9.685767210E-1,-1.095347255E-1,-3.250128925E-1,9.477447510E0
9.705750020E-1,-1.478419602E-1,-3.489548862E-1,9.755174637E0
9.725733350E-1,-1.143231317E-1,-2.962824702E-1,9.688137054E0
9.745716690E-1,5.985504249E-4,-4.686649740E-1,9.846154213E0
9.765700020E-1,1.975216344E-2,-4.686649740E-1,1.008078671E1
9.785683350E-1,2.454056777E-2,-1.957259923E-1,9.467870712E0
9.805666690E-1,-4.189853091E-3,-1.430535465E-1,9.467870712E0
9.825650020E-1,-4.189853091E-3,-2.723404467E-1,9.659406662E0
9.845632830E-1,7.721300423E-2,-2.962824702E-1,1.005684471E1
9.865611480E-1,9.636662155E-2,-1.095347255E-1,9.956287384E0
9.885587520E-1,-9.038111567E-2,1.681926697E-1,9.779116631E0
9.905563560E-1,1.059434265E-1,6.763619930E-2,9.405621529E0
9.925539600E-1,9.636662155E-2,9.157821536E-2,9.961075783E0
9.945515640E-1,1.011550203E-1,2.591723204E-1,9.558850288E0
9.965492210E-1,1.250970364E-1,2.831143439E-1,9.410409927E0
9.985469290E-1,2.454056777E-2,1.634042710E-1,9.649829865E0
1.000544689E0,7.242459804E-2,3.890577704E-2,1.019091988E1
1.002542502E0,1.107318252E-1,2.112883031E-1,9.865307808E0
1.004540366E0,1.011550203E-1,4.267664552E-1,9.549273491E0
1.006538283E0,1.250970364E-1,4.315548539E-1,9.745597839E0
1.008536252E0,1.011550203E-1,6.422445774E-1,9.803058624E0
1.010534273E0,9.636662155E-2,7.667431235E-1,9.774328232E0
1.012532346E0,1.777694821E-1,7.858967185E-1,9.865307808E0
1.014530471E0,1.729810685E-1,1.039682031E0,9.702502251E0
1.016528596E0,2.208651006E-1,1.250371814E0,9.482235909E0
1.018526721E0,2.256535143E-1,1.197699428E0,9.290699959E0
1.020524846E0,2.112883031E-1,9.295488000E-1,1.007120991E1
1.022522971E0,2.687491477E-1,1.044470549E0,1.032020664E1
1.024521096E0,3.932476342E-1,1.259948611E0,9.443928719E0
1.026519221E0,3.645172119E-1,1.221641421E0,9.443928719E0
1.028516981E0,3.357867897E-1,1.049258947E0,9.640253067E0
1.030514741E0,3.453635871E-1,8.672995567E-1,9.946710587E0
1.032512502E0,3.501519859E-1,8.625111580E-1,9.913191795E0
1.034510262E0,1.825578809E-1,7.954735160E-1,9.989806175E0
1.036508023E0,3.022679687E-1,8.577227592E-1,9.027337074E0
1.038505783E0,4.842272997E-1,6.374561787E-1,9.683348656E0
1.040503544E0,4.602852762E-1,4.267664552E-1,9.630676270E0
1.042501304E0,2.591723204E-1,2.543839216E-1,9.989806175E0
1.044499064E0,1.011550203E-1,1.490390599E-1,1.001853657E1
1.046496825E0,2.932897024E-2,2.112883031E-1,9.961075783E0
1.048494585E0,1.496376097E-2,2.543839216E-1,9.443928719E0
1.050492346E0,4.369417951E-2,2.543839216E-1,9.587580681E0
1.052490106E0,1.394622475E-1,2.256535143E-1,9.554061890E0
1.054487919E0,2.017114908E-1,2.160767019E-1,9.659406662E0
1.056485731E0,2.208651006E-1,1.059434265E-1,9.999382973E0
1.058483544E0,1.921346933E-1,-3.292027488E-2,9.908403397E0
1.060481356E0,1.681926697E-1,3.890577704E-2,9.774328232E0
1.062479221E0,1.873462796E-1,2.639607489E-1,9.601945877E0
1.064477085E0,1.394622475E-1,2.304419130E-1,9.429563522E0
1.066474950E0,1.496376097E-2,1.969230920E-1,9.668983459E0
1.068472814E0,-3.292027488E-2,8.678980917E-2,9.582792282E0
1.070470679E0,-7.122749835E-2,7.721300423E-2,9.855731010E0
1.072468544E0,-3.770867735E-2,1.011550203E-1,9.965864182E0
1.074466460E0,-1.765723825E-1,5.327098817E-2,9.683348656E0
1.076464377E0,-2.627636492E-1,5.985504249E-4,9.870096207E0
1.078462294E0,-3.345896900E-1,5.386953708E-3,9.989806175E0
1.080460210E0,-4.351461530E-1,9.636662155E-2,9.668983459E0
1.082458127E0,-5.835866928E-1,-4.189853091E-3,9.673771858E0
1.084456044E0,-4.973953962E-1,-2.334346622E-2,9.616311073E0
1.086453960E0,-4.016273320E-1,-4.249707982E-2,9.836577415E0
1.088451877E0,-3.968389332E-1,5.805939063E-2,9.491812706E0
1.090449794E0,-1.238999367E-1,9.636662155E-2,9.453505516E0
1.092447710E0,-5.686229095E-2,-8.978256024E-3,9.932345390E0
1.094445627E0,1.975216344E-2,-2.675520480E-1,9.712079048E0
1.096443544E0,-7.601590455E-2,-9.995792061E-2,1.002332497E1
1.098441460E0,3.890577704E-2,1.155202314E-1,9.625887871E0
1.100439169E0,-8.978256024E-3,9.636662155E-2,9.640253067E0
1.102436877E0,1.250970364E-1,5.386953708E-3,9.688137054E0
1.104434585E0,8.678980917E-2,-8.559270948E-2,9.879673004E0
1.106432294E0,1.586158574E-1,-4.249707982E-2,9.697713852E0
1.108430002E0,1.921346933E-1,1.155202314E-1,9.410409927E0
1.110427710E0,2.304419130E-1,5.805939063E-2,9.573215485E0
1.112425419E0,2.831143439E-1,-5.686229095E-2,1.000417137E1
1.114423179E0,3.118447661E-1,1.975216344E-2,9.985017776E0
1.116420991E0,3.788824081E-1,2.543839216E-1,9.554061890E0
1.118418856E0,3.597288132E-1,2.639607489E-1,9.534908295E0
1.120416773E0,2.256535143E-1,1.250970364E-1,9.913191795E0
1.122414689E0,2.208651006E-1,2.064998895E-1,1.001374817E1
1.124412606E0,3.549404144E-1,4.267664552E-1,9.448717117E0
1.126410523E0,4.698620737E-1,3.597288132E-1,9.329007149E0
1.128408439E0,4.746504724E-1,4.602852762E-1,9.238027573E0
1.130406356E0,4.507084787E-1,3.980360329E-1,9.664195061E0
1.132404273E0,4.124012291E-1,1.490390599E-1,1.017176628E1
1.134402189E0,4.076128304E-1,-5.165489912E-1,1.068891335E1
1.136400106E0,3.932476342E-1,-1.382651478E-1,9.343372345E0
1.138398075E0,4.985924959E-1,4.363432527E-1,8.754398346E0
1.140396096E0,4.028244317E-1,6.757634282E-1,8.936357498E0
1.142394116E0,2.591723204E-1,4.938040972E-1,9.678560257E0
1.144392137E0,2.064998895E-1,2.017114908E-1,1.040160942E1
1.146390158E0,3.166331649E-1,2.208651006E-1,1.009036350E1
1.148388179E0,3.453635871E-1,3.980360329E-1,9.510966301E0
1.150386200E0,1.538274586E-1,6.518214345E-1,9.065644264E0
1.152384221E0,-3.292027488E-2,4.554968774E-1,9.630676270E0
1.154382241E0,-1.095347255E-1,6.284779310E-2,1.055483818E1
1.156380262E0,-1.717839688E-1,1.969230920E-1,1.032020664E1
1.158378231E0,-1.478419602E-1,4.171896577E-1,9.238027573E0
1.160376096E0,-2.148796022E-1,3.980360329E-1,9.463082314E0
1.162373960E0,-2.292448133E-1,4.219780564E-1,9.649829865E0
1.164371825E0,-1.047463268E-1,3.597288132E-1,9.309853554E0
1.166369689E0,-1.095347255E-1,6.763619930E-2,9.999382973E0
1.168367554E0,-5.207388848E-2,-9.995792061E-2,1.014303589E1
1.170365419E0,1.298854351E-1,-2.196680009E-1,9.645041466E0
1.172363283E0,6.763619930E-2,1.011550203E-1,9.621099472E0
1.174360991E0,3.411737457E-2,2.879027426E-1,9.755174637E0
1.176358700E0,-4.249707982E-2,3.022679687E-1,9.712079048E0
1.178356408E0,-1.143231317E-1,1.490390599E-1,1.002332497E1
1.180354116E0,-1.526303589E-1,1.442506462E-1,1.000417137E1
1.182351825E0,-1.909375787E-1,1.729810685E-1,1.007120991E1
1.184349533E0,-1.334767491E-1,3.070563674E-1,9.501389503E0
1.186347241E0,-1.430535465E-1,4.315548539E-1,9.731232643E0
1.188344950E0,-1.669955701E-1,4.411316514E-1,9.664195061E0
1.190342658E0,-1.376665942E-2,3.788824081E-1,9.616311073E0
1.192340366E0,-2.334346622E-2,2.879027426E-1,1.006163311E1
1.194338075E0,3.890577704E-2,2.831143439E-1,9.621099472E0
1.196335783E0,-6.643909961E-2,2.017114908E-1,9.736021042E0
1.198333491E0,-3.770867735E-2,1.203086376E-1,9.668983459E0
1.200331252E0,-1.855506375E-2,7.721300423E-2,9.783905029E0
1.202329064E0,-4.189853091E-3,1.203086376E-1,9.645041466E0
1.204326929E0,-2.813187055E-2,1.442506462E-1,9.391256332E0
1.206324794E0,-1.191115379E-1,-4.728548229E-2,9.568427086E0
1.208322658E0,-3.292027488E-2,-1.238999367E-1,1.009515190E1
1.210320523E0,-7.601590455E-2,-2.483984232E-1,1.031541824E1
1.212318387E0,-4.189853091E-3,-4.728548229E-2,9.759963036E0
1.214316252E0,-5.686229095E-2,3.890577704E-2,9.568427086E0
1.216314116E0,-7.122749835E-2,3.411737457E-2,9.295488358E0
1.218311825E0,-9.995792061E-2,-2.813187055E-2,9.343372345E0
1.220309533E0,-1.047463268E-1,-2.531868219E-1,9.803058624E0
1.222307241E0,-8.080431074E-2,-2.675520480E-1,9.970652580E0
1.224304950E0,3.411737457E-2,-1.286883354E-1,9.668983459E0
1.226302658E0,1.729810685E-1,2.932897024E-2,9.410409927E0
1.228300366E0,2.112883031E-1,-3.770867735E-2,9.563638687E0
1.230298127E0,2.304419130E-1,-2.292448133E-1,9.822212219E0
1.232295939E0,2.017114908E-1,-3.681085110E-1,9.865307808E0
1.234293804E0,2.064998895E-1,-2.053027898E-1,9.783905029E0
1.236291721E0,1.729810685E-1,-5.686229095E-2,9.391256332E0
1.238289689E0,1.873462796E-1,-1.574187577E-1,9.668983459E0
1.240287710E0,2.160767019E-1,-2.292448133E-1,1.010951710E1
1.242285783E0,2.639607489E-1,5.805939063E-2,9.712079048E0
1.244283908E0,2.879027426E-1,2.160767019E-1,9.352949142E0
1.246282085E0,2.304419130E-1,7.721300423E-2,9.726444244E0
1.248280262E0,1.729810685E-1,-8.080431074E-2,9.956287384E0
1.250278439E0,1.969230920E-1,-8.080431074E-2,9.870096207E0
1.252276460E0,3.214215636E-1,2.454056777E-2,9.803058624E0
1.254274221E0,2.687491477E-1,1.394622475E-1,9.563638687E0
1.256271981E0,1.921346933E-1,4.369417951E-2,9.601945877E0
1.258269689E0,1.298854351E-1,3.411737457E-2,9.874884605E0
1.260267294E0,9.636662155E-2,2.064998895E-1,9.554061890E0
1.262264898E0,4.848258570E-2,1.298854351E-1,9.659406662E0
1.264262502E0,1.017535757E-2,-8.978256024E-3,9.640253067E0
1.266260106E0,-4.249707982E-2,-8.978256024E-3,9.941922188E0
1.268257710E0,-3.770867735E-2,-4.249707982E-2,9.831789017E0
1.270255314E0,-1.047463268E-1,-3.770867735E-2,9.951498985E0
1.272252971E0,-1.526303589E-1,-9.038111567E-2,9.850942612E0
1.274250679E0,-2.388216257E-1,-2.334346622E-2,9.779116631E0
1.276248439E0,-2.196680009E-1,2.454056777E-2,9.611522675E0
1.278246252E0,-2.531868219E-1,-3.770867735E-2,9.625887871E0
1.280244116E0,-1.909375787E-1,4.369417951E-2,9.664195061E0
1.282242033E0,-2.340332121E-1,7.721300423E-2,9.712079048E0
1.284240002E0,-2.053027898E-1,1.346738487E-1,9.357737541E0
1.286238023E0,-2.053027898E-1,1.777694821E-1,9.400833130E0
1.288236096E0,-1.813607812E-1,8.678980917E-2,9.879673004E0
1.290234169E0,-2.340332121E-1,1.346738487E-1,9.865307808E0
1.292232241E0,-1.765723825E-1,9.636662155E-2,1.000895977E1
1.294230314E0,-1.765723825E-1,9.157821536E-2,9.606734276E0
1.296228387E0,-9.995792061E-2,3.501519859E-1,8.773551941E0
1.298226460E0,-1.909375787E-1,1.873462796E-1,9.214085579E0
1.300224377E0,-5.740098357E-1,-5.835866928E-1,9.874884605E0
1.302222241E0,-4.064157307E-1,-7.032967210E-1,1.124915695E1
1.304220106E0,-3.345896900E-1,-5.069721937E-1,1.041597462E1
1.306217971E0,-2.723404467E-1,-2.436100245E-1,9.807847023E0
1.308215835E0,-2.148796022E-1,-7.601590455E-2,9.276334763E0
1.310213700E0,-1.861491799E-1,-9.038111567E-2,9.156624794E0
1.312211564E0,-3.776853085E-1,3.890577704E-2,9.386467934E0
1.314209429E0,-3.537433147E-1,5.327098817E-2,1.009994030E1
1.316207294E0,-2.244564146E-1,1.825578809E-1,1.013824749E1
1.318205158E0,-2.005143911E-1,4.842272997E-1,9.932345390E0
1.320203023E0,-1.526303589E-1,6.518214345E-1,9.501389503E0
1.322200887E0,-2.100912035E-1,7.619546652E-1,9.640253067E0
1.324198752E0,-1.382651478E-1,7.763199210E-1,9.664195061E0
1.326196616E0,-5.207388848E-2,9.774328470E-1,9.333795547E0
1.328194533E0,7.242459804E-2,9.534908533E-1,9.501389503E0
1.330192502E0,1.250970364E-1,7.523778677E-1,9.941922188E0
1.332190471E0,2.304419130E-1,7.140706778E-1,1.027711105E1
1.334188439E0,3.453635871E-1,9.247604012E-1,9.985017776E0
1.336186408E0,5.081692934E-1,1.183334231E0,9.477447510E0
1.338184429E0,4.267664552E-1,1.121084929E0,9.453505516E0
1.340182450E0,2.735375464E-1,8.816647530E-1,9.759963036E0
1.342180471E0,2.831143439E-1,8.050503135E-1,1.007120991E1
1.344178491E0,2.495955229E-1,9.582792521E-1,9.487024307E0
1.346176512E0,1.681926697E-1,9.582792521E-1,9.405621529E0
1.348174533E0,8.200141042E-2,8.768763542E-1,9.391256332E0
1.350172554E0,-1.376665942E-2,7.619546652E-1,9.367314339E0
1.352170575E0,-1.047463268E-1,5.656301379E-1,9.597157478E0
1.354168596E0,-1.765723825E-1,3.262099922E-1,9.975440979E0
1.356166616E0,-1.717839688E-1,2.783259451E-1,1.003290176E1
1.358164637E0,-1.286883354E-1,3.166331649E-1,9.635464668E0
1.360162658E0,-2.053027898E-1,2.160767019E-1,9.860519409E0
1.362160679E0,-3.154360652E-1,-1.855506375E-2,1.017176628E1
1.364158700E0,-3.202244639E-1,-1.376665942E-2,9.961075783E0
1.366156721E0,-2.292448133E-1,1.729810685E-1,9.453505516E0
1.368154741E0,-3.202244639E-1,1.490390599E-1,8.979453087E0
1.370152762E0,-4.016273320E-1,-2.005143911E-1,9.803058624E0
1.372150783E0,-3.728969097E-1,-4.878185987E-1,1.041118622E1
1.374148752E0,-3.681085110E-1,-3.872621357E-1,1.044949341E1
1.376146512E0,-2.723404467E-1,-2.334346622E-2,9.534908295E0
1.378144273E0,-2.675520480E-1,1.921346933E-1,9.056067467E0
1.380142033E0,-3.154360652E-1,3.890577704E-2,9.482235909E0
1.382139794E0,-2.914940715E-1,-6.165069342E-2,9.865307808E0
1.384137554E0,-3.489548862E-1,-6.643909961E-2,9.965864182E0
1.386135314E0,-3.298012912E-1,3.411737457E-2,1.006163311E1
1.388133075E0,-2.819172442E-1,1.969230920E-1,9.640253067E0
1.390130835E0,-2.436100245E-1,2.112883031E-1,9.673771858E0
1.392128596E0,-2.483984232E-1,2.735375464E-1,9.759963036E0
1.394126356E0,-2.244564146E-1,2.926911712E-1,9.817423820E0
1.396124116E0,-1.622071713E-1,3.309983909E-1,9.850942612E0
1.398121929E0,-1.526303589E-1,2.926911712E-1,9.721655846E0
1.400119794E0,-1.526303589E-1,2.879027426E-1,9.683348656E0
1.402117710E0,-1.526303589E-1,4.363432527E-1,9.376891136E0
1.404115679E0,-9.516951442E-2,4.219780564E-1,9.333795547E0
1.406113700E0,-7.122749835E-2,2.926911712E-1,9.731232643E0
1.408111773E0,-1.376665942E-2,2.352303118E-1,9.817423820E0
1.410109898E0,-8.978256024E-3,1.634042710E-1,1.032978344E1
1.412108075E0,1.975216344E-2,2.208651006E-1,9.759963036E0
1.414106252E0,3.890577704E-2,3.501519859E-1,9.783905029E0
1.416104429E0,-4.189853091E-3,4.554968774E-1,9.558850288E0
1.418102606E0,5.985504249E-4,3.405751884E-1,9.668983459E0
1.420100783E0,-3.770867735E-2,2.735375464E-1,9.807847023E0
1.422098752E0,-8.559270948E-2,3.693056107E-1,9.568427086E0
1.424096460E0,4.848258570E-2,5.656301379E-1,9.252392769E0
1.426094169E0,3.890577704E-2,4.602852762E-1,9.314641953E0
1.428091877E0,5.805939063E-2,3.070563674E-1,9.712079048E0
1.430089585E0,1.496376097E-2,2.879027426E-1,1.000895977E1
1.432087294E0,1.634042710E-1,4.459200799E-1,1.002811337E1
1.434085002E0,1.729810685E-1,6.039373875E-1,9.798270226E0
1.436082710E0,1.634042710E-1,5.847837925E-1,9.836577415E0
1.438080471E0,2.687491477E-1,6.039373875E-1,9.745597839E0
1.440078283E0,2.017114908E-1,6.230909824E-1,9.606734276E0
1.442076148E0,1.729810685E-1,6.853402257E-1,9.314641953E0
1.444074064E0,8.678980917E-2,3.405751884E-1,9.597157478E0
1.446072033E0,7.242459804E-2,1.538274586E-1,1.027711105E1
1.448070054E0,1.203086376E-1,3.932476342E-1,1.025316906E1
1.450068127E0,1.634042710E-1,4.459200799E-1,9.506177902E0
1.452066200E0,7.721300423E-2,3.214215636E-1,9.558850288E0
1.454064273E0,4.369417951E-2,1.442506462E-1,9.908403397E0
1.456062346E0,5.805939063E-2,9.157821536E-2,9.827000618E0
1.458060419E0,5.805939063E-2,1.059434265E-1,9.736021042E0
1.460058491E0,5.985504249E-4,-2.334346622E-2,9.812635422E0
1.462056460E0,5.386953708E-3,-7.122749835E-2,9.736021042E0
1.464054221E0,-8.978256024E-3,-8.559270948E-2,9.616311073E0
1.466051981E0,-4.249707982E-2,-1.143231317E-1,9.640253067E0
1.468049741E0,-6.165069342E-2,-1.095347255E-1,9.156624794E0
1.470047502E0,-3.292027488E-2,-2.388216257E-1,9.348160744E0
1.472045262E0,-6.165069342E-2,-4.016273320E-1,9.961075783E0
1.474043023E0,5.386953708E-3,-3.633201122E-1,1.004247856E1
1.476040783E0,-1.376665942E-2,-2.244564146E-1,9.750386238E0
1.478038544E0,2.454056777E-2,-2.483984232E-1,9.999382973E0
1.480036304E0,-4.249707982E-2,-2.723404467E-1,9.884461403E0
1.482034116E0,-5.207388848E-2,-2.292448133E-1,9.774328232E0
1.484031981E0,-3.292027488E-2,-8.080431074E-2,9.601945877E0
1.486029898E0,-6.165069342E-2,-2.334346622E-2,9.635464668E0
1.488027866E0,-5.207388848E-2,-7.122749835E-2,9.927556992E0
1.490025887E0,-4.189853091E-3,-4.189853091E-3,9.879673004E0
1.492023960E0,1.017535757E-2,8.200141042E-2,9.692925453E0
1.494022033E0,-1.855506375E-2,1.490390599E-1,9.530119896E0
1.496020106E0,4.369417951E-2,1.681926697E-1,9.841365814E0
1.498018179E0,4.848258570E-2,3.597288132E-1,9.721655846E0
1.500016252E0,1.011550203E-1,5.512649417E-1,9.400833130E0
1.502014325E0,1.538274586E-1,5.847837925E-1,9.400833130E0
1.504012398E0,1.490390599E-1,3.166331649E-1,1.001853657E1
1.506010471E0,1.346738487E-1,2.591723204E-1,1.029147625E1
1.508008544E0,1.538274586E-1,5.177460909E-1,9.726444244E0
1.510006460E0,1.729810685E-1,6.661866307E-1,9.525331497E0
1.512004221E0,1.586158574E-1,5.847837925E-1,9.822212219E0
1.514001981E0,1.490390599E-1,5.991489887E-1,9.798270226E0
1.515999741E0,1.011550203E-1,7.475894690E-1,9.736021042E0
1.517997502E0,1.346738487E-1,7.284358740E-1,9.372102737E0
1.519995158E0,1.442506462E-1,5.512649417E-1,9.884461403E0
1.521992814E0,1.298854351E-1,5.225345492E-1,1.002332497E1
1.523990471E0,1.538274586E-1,6.566098332E-1,9.678560257E0
1.525988127E0,1.059434265E-1,6.278793812E-1,9.520543098E0
1.527985783E0,8.200141042E-2,4.985924959E-1,9.788693428E0
1.529983439E0,5.386953708E-3,4.459200799E-1,9.750386238E0
1.531981148E0,-3.292027488E-2,4.842272997E-1,9.458293915E0
1.533978908E0,-7.122749835E-2,4.554968774E-1,9.348160744E0
1.535976721E0,-5.686229095E-2,3.597288132E-1,9.702502251E0
1.537974585E0,-5.686229095E-2,3.118447661E-1,9.587580681E0
1.539972450E0,-6.643909961E-2,2.160767019E-1,9.712079048E0
1.541970314E0,-1.047463268E-1,2.064998895E-1,9.783905029E0
1.543968179E0,-1.430535465E-1,1.969230920E-1,9.702502251E0
1.545966044E0,-2.340332121E-1,1.777694821E-1,9.908403397E0
1.547963908E0,-1.909375787E-1,2.687491477E-1,9.621099472E0
1.549961773E0,-2.005143911E-1,3.932476342E-1,9.175778389E0
1.551959637E0,-1.669955701E-1,1.969230920E-1,9.807847023E0
1.553957398E0,-1.622071713E-1,2.454056777E-2,1.045907021E1
1.555955158E0,-1.574187577E-1,4.369417951E-2,1.019570827E1
1.557952814E0,-6.643909961E-2,2.112883031E-1,9.683348656E0
1.559950471E0,-1.855506375E-2,3.118447661E-1,9.539696693E0
1.561948127E0,5.386953708E-3,2.591723204E-1,9.558850288E0
1.563945783E0,-8.978256024E-3,1.250970364E-1,9.807847023E0
1.565943439E0,1.017535757E-2,1.298854351E-1,9.836577415E0
1.567941096E0,8.200141042E-2,1.203086376E-1,9.712079048E0
1.569938804E0,1.442506462E-1,6.284779310E-2,1.003769016E1
1.571936564E0,1.011550203E-1,2.208651006E-1,9.874884605E0
1.573934377E0,1.107318252E-1,3.645172119E-1,9.352949142E0
1.575932189E0,5.327098817E-2,2.926911712E-1,9.400833130E0
1.577930002E0,1.107318252E-1,2.879027426E-1,9.860519409E0
1.579927814E0,9.157821536E-2,3.453635871E-1,9.678560257E0
1.581925627E0,1.203086376E-1,3.980360329E-1,9.487024307E0
1.583923439E0,1.490390599E-1,4.076128304E-1,9.721655846E0
1.585921252E0,1.586158574E-1,3.405751884E-1,9.688137054E0
1.587919064E0,1.298854351E-1,3.405751884E-1,9.975440979E0
1.589916877E0,2.160767019E-1,4.315548539E-1,9.836577415E0
1.591914689E0,2.400187254E-1,6.039373875E-1,9.510966301E0
1.593912502E0,2.352303118E-1,6.709750295E-1,9.482235909E0
1.595910314E0,1.825578809E-1,6.278793812E-1,9.424775124E0
1.597908127E0,2.304419130E-1,5.608417392E-1,9.688137054E0
1.599905939E0,2.112883031E-1,4.219780564E-1,1.012388229E1
1.601903752E0,2.064998895E-1,4.554968774E-1,1.002332497E1
1.603901564E0,1.825578809E-1,5.464765429E-1,9.783905029E0
1.605899377E0,1.921346933E-1,6.661866307E-1,9.582792282E0
1.607897189E0,2.256535143E-1,6.661866307E-1,9.659406662E0
1.609895002E0,2.017114908E-1,5.895721912E-1,9.726444244E0
1.611892814E0,1.729810685E-1,5.321113467E-1,1.012388229E1
1.613890627E0,1.107318252E-1,6.566098332E-1,9.640253067E0
1.615888439E0,7.242459804E-2,7.140706778E-1,9.391256332E0
1.617886252E0,8.200141042E-2,6.901286244E-1,9.630676270E0
1.619884064E0,7.242459804E-2,5.895721912E-1,9.611522675E0
1.621881877E0,-8.978256024E-3,4.363432527E-1,9.788693428E0
1.623879689E0,-4.728548229E-2,4.076128304E-1,9.894038200E0
1.625877502E0,-3.770867735E-2,4.028244317E-1,9.702502251E0
1.627875314E0,-6.165069342E-2,2.687491477E-1,9.827000618E0
1.629873127E0,-1.376665942E-2,3.118447661E-1,9.759963036E0
1.631870939E0,-6.165069342E-2,1.729810685E-1,9.702502251E0
1.633868752E0,-1.238999367E-1,1.921346933E-1,9.965864182E0
1.635866564E0,-1.191115379E-1,3.549404144E-1,9.458293915E0
1.637864429E0,-1.430535465E-1,3.214215636E-1,9.199720383E0
1.639862294E0,-8.080431074E-2,7.721300423E-2,9.961075783E0
1.641860158E0,4.369417951E-2,9.636662155E-2,1.022443867E1
1.643858023E0,1.011550203E-1,1.586158574E-1,9.487024307E0
1.645855887E0,4.369417951E-2,1.825578809E-1,9.659406662E0
1.647853752E0,8.200141042E-2,1.538274586E-1,9.726444244E0
1.649851616E0,7.721300423E-2,8.200141042E-2,9.549273491E0
1.651849481E0,1.346738487E-1,3.411737457E-2,1.000417137E1
1.653847346E0,1.729810685E-1,1.921346933E-1,9.745597839E0
1.655845210E0,1.346738487E-1,2.783259451E-1,9.415198326E0
1.657843075E0,1.586158574E-1,2.448071241E-1,9.357737541E0
1.659840939E0,1.538274586E-1,-1.855506375E-2,1.007120991E1
1.661838804E0,1.107318252E-1,-1.286883354E-1,1.031541824E1
1.663836669E0,9.636662155E-2,1.017535757E-2,9.740809441E0
1.665834533E0,8.200141042E-2,2.304419130E-1,9.343372345E0
1.667832398E0,8.678980917E-2,1.490390599E-1,9.472659111E0
1.669830314E0,9.157821536E-2,-1.855506375E-2,9.903614998E0
1.671828283E0,7.721300423E-2,-7.601590455E-2,1.017655468E1
1.673826304E0,1.394622475E-1,1.538274586E-1,9.573215485E0
1.675824377E0,1.298854351E-1,2.783259451E-1,9.496601105E0
1.677822502E0,1.681926697E-1,3.836708367E-1,9.257181168E0
1.679820679E0,1.777694821E-1,2.926911712E-1,9.726444244E0
1.681818856E0,1.777694821E-1,-5.686229095E-2,1.043991661E1
1.683817033E0,2.448071241E-1,-4.249707982E-2,1.043033981E1
1.685815210E0,2.735375464E-1,2.112883031E-1,9.850942612E0
1.687813387E0,1.921346933E-1,2.687491477E-1,9.372102737E0
1.689811564E0,2.112883031E-1,3.022679687E-1,9.621099472E0
1.691809741E0,2.783259451E-1,2.926911712E-1,9.606734276E0
1.693807919E0,2.256535143E-1,2.974795699E-1,9.434351921E0
1.695806096E0,1.825578809E-1,1.681926697E-1,9.721655846E0
1.697804116E0,1.538274586E-1,-1.376665942E-2,1.016218948E1
1.699801981E0,1.681926697E-1,9.157821536E-2,9.961075783E0
1.701799846E0,2.448071241E-1,3.836708367E-1,9.218873978E0
1.703797710E0,2.400187254E-1,3.405751884E-1,9.190143585E0
1.705795575E0,1.634042710E-1,8.678980917E-2,9.946710587E0
1.707793439E0,1.346738487E-1,-2.334346622E-2,1.013345909E1
1.709791304E0,1.873462796E-1,1.825578809E-1,9.702502251E0
1.711789169E0,2.017114908E-1,3.070563674E-1,9.429563522E0
1.713787033E0,1.394622475E-1,3.262099922E-1,9.343372345E0
1.715784950E0,1.298854351E-1,1.825578809E-1,9.707290649E0
1.717782919E0,4.848258570E-2,-1.047463268E-1,1.070806694E1
1.719780939E0,8.200141042E-2,2.017114908E-1,9.956287384E0
1.721778960E0,6.284779310E-2,4.459200799E-1,8.878896713E0
1.723776981E0,2.454056777E-2,1.825578809E-1,9.515754700E0
1.725775002E0,-3.292027488E-2,-8.559270948E-2,1.037766743E1
1.727773023E0,-4.249707982E-2,1.975216344E-2,1.005205631E1
1.729771044E0,3.411737457E-2,3.645172119E-1,9.199720383E0
1.731769012E0,1.975216344E-2,3.214215636E-1,9.343372345E0
1.733766773E0,3.411737457E-2,-4.728548229E-2,1.032499504E1
1.735764533E0,4.848258570E-2,8.200141042E-2,1.026753426E1
1.737762294E0,1.975216344E-2,3.309983909E-1,9.300276756E0
1.739760054E0,-2.813187055E-2,3.932476342E-1,9.089587212E0
1.741757814E0,-1.855506375E-2,3.118447661E-1,9.587580681E0
1.743755575E0,-5.686229095E-2,1.250970364E-1,9.697713852E0
1.745753335E0,-2.053027898E-1,1.011550203E-1,1.000417137E1
1.747751096E0,-1.813607812E-1,2.879027426E-1,9.621099472E0
1.749748856E0,-2.436100245E-1,2.400187254E-1,9.592369080E0
1.751746616E0,-2.005143911E-1,1.011550203E-1,1.016218948E1
1.753744429E0,-1.861491799E-1,8.678980917E-2,9.956287384E0
1.755742294E0,-1.909375787E-1,4.369417951E-2,9.788693428E0
1.757740210E0,-2.100912035E-1,-1.376665942E-2,9.721655846E0
1.759738179E0,-1.957259923E-1,1.059434265E-1,9.697713852E0
1.761736252E0,-1.143231317E-1,2.831143439E-1,9.376891136E0
1.763734429E0,-1.238999367E-1,3.693056107E-1,9.003395081E0
1.765732710E0,-5.686229095E-2,1.825578809E-1,9.621099472E0
1.767731044E0,-8.080431074E-2,5.985504249E-4,1.028189945E1
1.769729429E0,-3.292027488E-2,1.634042710E-1,9.894038200E0
1.771727866E0,-1.855506375E-2,2.064998895E-1,9.549273491E0
1.773726304E0,-4.249707982E-2,2.064998895E-1,9.611522675E0
1.775724741E0,1.975216344E-2,5.327098817E-2,9.846154213E0
1.777722866E0,6.763619930E-2,-1.855506375E-2,1.012388229E1
1.779720731E0,1.017535757E-2,1.107318252E-1,9.793481827E0
1.781718439E0,3.411737457E-2,3.597288132E-1,9.463082314E0
1.783716148E0,9.636662155E-2,2.879027426E-1,9.573215485E0
1.785713856E0,1.107318252E-1,1.203086376E-1,9.827000618E0
1.787711564E0,6.763619930E-2,-5.207388848E-2,1.059314537E1
1.789709273E0,2.932897024E-2,2.017114908E-1,9.707290649E0
1.791706981E0,5.386953708E-3,4.267664552E-1,8.960299492E0
1.793704689E0,7.242459804E-2,3.693056107E-1,9.252392769E0
1.795702398E0,1.975216344E-2,1.586158574E-1,1.000417137E1
1.797700106E0,4.369417951E-2,5.327098817E-2,1.037287903E1
1.799697814E0,1.059434265E-1,3.022679687E-1,9.908403397E0
1.801695523E0,8.200141042E-2,4.746504724E-1,9.424775124E0
1.803693283E0,3.890577704E-2,4.890156984E-1,9.419986725E0
1.805691096E0,-1.376665942E-2,3.262099922E-1,9.827000618E0
1.807688960E0,-1.143231317E-1,3.070563674E-1,9.985017776E0
1.809686825E0,-1.047463268E-1,3.214215636E-1,9.745597839E0
1.811684689E0,-1.855506375E-2,3.453635871E-1,9.731232643E0
1.813682554E0,-5.207388848E-2,4.171896577E-1,9.530119896E0
1.815680419E0,-3.770867735E-2,4.124012291E-1,9.410409927E0
1.817678283E0,1.975216344E-2,3.357867897E-1,9.635464668E0
1.819676148E0,-4.728548229E-2,2.256535143E-1,9.865307808E0
1.821673960E0,-1.334767491E-1,1.394622475E-1,9.836577415E0
1.823671616E0,-2.053027898E-1,2.591723204E-1,9.683348656E0
1.825669169E0,-1.047463268E-1,3.453635871E-1,9.587580681E0
1.827666669E0,-4.249707982E-2,2.448071241E-1,9.554061890E0
1.829664169E0,-4.189853091E-3,1.155202314E-1,9.664195061E0
1.831661669E0,1.017535757E-2,-4.249707982E-2,1.008078671E1
1.833659169E0,2.454056777E-2,-1.855506375E-2,9.865307808E0
1.835656669E0,1.017535757E-2,-6.643909961E-2,9.563638687E0
1.837654221E0,1.496376097E-2,-1.430535465E-1,9.803058624E0
1.839651825E0,1.975216344E-2,-3.010708690E-1,9.956287384E0
1.841649481E0,4.848258570E-2,-2.819172442E-1,9.798270226E0
1.843647189E0,1.975216344E-2,-2.579752207E-1,9.592369080E0
1.845644950E0,4.848258570E-2,-2.962824702E-1,9.549273491E0
1.847642762E0,-4.189853091E-3,-3.250128925E-1,9.592369080E0
1.849640627E0,-6.165069342E-2,-2.436100245E-1,9.424775124E0
1.851638596E0,-9.516951442E-2,-2.436100245E-1,9.218873978E0
1.853636616E0,-8.080431074E-2,-5.404910445E-1,9.803058624E0
1.855634689E0,-9.995792061E-2,-7.224503756E-1,1.053568459E1
1.857632814E0,-1.047463268E-1,-6.171054840E-1,1.017655468E1
1.859630991E0,-1.095347255E-1,-3.920505345E-1,9.419986725E0
1.861629169E0,-9.038111567E-2,-3.345896900E-1,9.458293915E0
1.863627346E0,-5.207388848E-2,-3.681085110E-1,9.587580681E0
1.865625523E0,-7.122749835E-2,-3.585317135E-1,9.803058624E0
1.867623544E0,-1.382651478E-1,-5.404910445E-1,9.783905029E0
1.869621096E0,-1.143231317E-1,-4.495113790E-1,1.013345909E1
1.871618648E0,-3.770867735E-2,-1.376665942E-2,9.601945877E0
1.873616148E0,1.496376097E-2,2.926911712E-1,8.629899979E0
1.875613648E0,-5.207388848E-2,4.369417951E-2,9.544485092E0
1.877611148E0,-4.728548229E-2,-1.095347255E-1,1.047343540E1
1.879608648E0,-8.978256024E-3,6.284779310E-2,1.004247856E1
1.881606148E0,5.327098817E-2,2.783259451E-1,9.319430351E0
1.883603700E0,2.454056777E-2,2.783259451E-1,9.621099472E0
1.885601304E0,5.805939063E-2,1.203086376E-1,9.980229378E0
1.887598960E0,2.454056777E-2,5.985504249E-4,1.003769016E1
1.889596721E0,-7.601590455E-2,8.678980917E-2,9.884461403E0
1.891594585E0,-2.334346622E-2,1.586158574E-1,9.558850288E0
1.893592502E0,-7.122749835E-2,4.369417951E-2,9.429563522E0
1.895590471E0,-3.292027488E-2,-5.207388848E-2,1.000895977E1
1.897588491E0,-4.249707982E-2,5.805939063E-2,9.645041466E0
1.899586564E0,-9.995792061E-2,2.932897024E-2,9.338583946E0
1.901584689E0,-9.038111567E-2,3.411737457E-2,9.759963036E0
1.903582814E0,-1.143231317E-1,-1.430535465E-1,9.865307808E0
1.905580939E0,-1.191115379E-1,-2.005143911E-1,1.002332497E1
1.907579064E0,-9.038111567E-2,-1.334767491E-1,9.534908295E0
1.909577085E0,-1.143231317E-1,-1.526303589E-1,9.453505516E0
1.911574950E0,-1.717839688E-1,-3.633201122E-1,1.010951710E1
1.913572814E0,-1.478419602E-1,-4.878185987E-1,1.032978344E1
1.915570679E0,-1.191115379E-1,-3.681085110E-1,1.007599831E1
1.917568439E0,-1.957259923E-1,-2.196680009E-1,9.338583946E0
1.919566148E0,-1.717839688E-1,-3.250128925E-1,9.376891136E0
1.921563856E0,-1.574187577E-1,-5.117605925E-1,9.850942612E0
1.923561564E0,-2.244564146E-1,-6.649895310E-1,1.001853657E1
1.925559273E0,-1.813607812E-1,-5.787982345E-1,9.894038200E0
1.927556981E0,-1.238999367E-1,-3.920505345E-1,9.487024307E0
1.929554689E0,-1.191115379E-1,-3.776853085E-1,9.372102737E0
1.931552398E0,-1.669955701E-1,-5.357026458E-1,9.951498985E0
1.933550106E0,-8.559270948E-2,-6.171054840E-1,1.007120991E1
1.935547814E0,-5.686229095E-2,-4.495113790E-1,9.783905029E0
1.937545523E0,-1.376665942E-2,-3.202244639E-1,9.515754700E0
1.939543231E0,5.985504249E-4,-2.531868219E-1,9.309853554E0
1.941540939E0,-2.813187055E-2,-3.058592677E-1,9.764751434E0
1.943538648E0,-5.207388848E-2,-3.393780887E-1,9.985017776E0
1.945536408E0,-1.095347255E-1,-2.579752207E-1,9.702502251E0
1.947534221E0,-5.207388848E-2,-1.382651478E-1,9.731232643E0
1.949532085E0,-5.686229095E-2,-1.717839688E-1,9.673771858E0
1.951530002E0,-3.770867735E-2,-1.095347255E-1,9.726444244E0
1.953527919E0,-2.813187055E-2,-1.622071713E-1,9.879673004E0
1.955525835E0,1.975216344E-2,-1.334767491E-1,9.702502251E0
1.957523752E0,-8.978256024E-3,-9.516951442E-2,9.779116631E0
1.959521669E0,2.454056777E-2,-8.559270948E-2,9.798270226E0
1.961519585E0,-4.189853091E-3,-4.249707982E-2,9.736021042E0
1.963517502E0,-4.728548229E-2,9.636662155E-2,9.716867447E0
1.965515210E0,-2.334346622E-2,2.208651006E-1,9.510966301E0
1.967512919E0,-3.292027488E-2,2.400187254E-1,9.496601105E0
1.969510627E0,-6.643909961E-2,2.064998895E-1,9.807847023E0
1.971508335E0,-4.728548229E-2,2.639607489E-1,9.827000618E0
1.973506044E0,-2.813187055E-2,3.214215636E-1,9.640253067E0
1.975503752E0,3.890577704E-2,3.549404144E-1,9.731232643E0
1.977501460E0,-2.813187055E-2,3.501519859E-1,9.807847023E0
1.979499169E0,-1.191115379E-1,4.507084787E-1,9.683348656E0
1.981496877E0,-1.574187577E-1,4.650736749E-1,9.692925453E0
1.983494585E0,-1.334767491E-1,4.698620737E-1,9.769539833E0
1.985492294E0,-9.516951442E-2,4.267664552E-1,9.913191795E0
1.987490002E0,-1.574187577E-1,4.985924959E-1,9.736021042E0
1.989487710E0,-1.382651478E-1,6.422445774E-1,9.453505516E0
1.991485419E0,-1.382651478E-1,6.230909824E-1,9.443928719E0
1.993483127E0,-1.430535465E-1,5.464765429E-1,9.716867447E0
1.995480835E0,-9.038111567E-2,5.656301379E-1,9.850942612E0
1.997478596E0,-9.038111567E-2,6.805518270E-1,9.803058624E0
1.999476408E0,-1.669955701E-1,6.757634282E-1,9.697713852E0
2.001474273E0,-1.191115379E-1,6.949170232E-1,9.692925453E0
2.003472137E0,-1.143231317E-1,7.284358740E-1,9.544485092E0
2.005470002E0,-2.244564146E-1,6.326677799E-1,9.491812706E0
2.007467866E0,-2.340332121E-1,5.273229480E-1,9.846154213E0
2.009465731E0,-1.382651478E-1,4.554968774E-1,9.874884605E0
2.011463596E0,-1.574187577E-1,4.985924959E-1,9.664195061E0
2.013461460E0,-2.813187055E-2,4.602852762E-1,9.673771858E0
2.015459325E0,-3.292027488E-2,4.507084787E-1,9.889249802E0
2.017457189E0,-5.686229095E-2,4.267664552E-1,9.750386238E0
2.019455054E0,-2.813187055E-2,3.836708367E-1,9.946710587E0
2.021452919E0,3.411737457E-2,3.740940094E-1,9.927556992E0
2.023450783E0,-4.189853091E-3,3.980360329E-1,9.774328232E0
2.025448491E0,6.284779310E-2,4.507084787E-1,9.702502251E0
2.027446044E0,3.890577704E-2,5.416881442E-1,9.405621529E0
2.029443596E0,-1.855506375E-2,5.081692934E-1,9.415198326E0
2.031441148E0,1.975216344E-2,4.602852762E-1,9.889249802E0
2.033438700E0,1.011550203E-1,4.459200799E-1,1.020528507E1
2.035436252E0,1.155202314E-1,5.512649417E-1,9.692925453E0
2.037433804E0,1.729810685E-1,6.326677799E-1,9.678560257E0
2.039431356E0,2.304419130E-1,6.853402257E-1,9.534908295E0
2.041428908E0,1.681926697E-1,6.518214345E-1,9.578003883E0
2.043426460E0,1.059434265E-1,5.752069354E-1,9.965864182E0
2.045424012E0,2.064998895E-1,5.943605900E-1,9.903614998E0
2.047421564E0,2.112883031E-1,6.613982320E-1,9.812635422E0
2.049419169E0,1.681926697E-1,7.428010702E-1,9.649829865E0
2.051416773E0,2.112883031E-1,6.709750295E-1,9.606734276E0
2.053414377E0,2.017114908E-1,5.512649417E-1,9.783905029E0
2.055411981E0,1.729810685E-1,6.278793812E-1,9.831789017E0
2.057409585E0,1.729810685E-1,6.757634282E-1,9.597157478E0
2.059407189E0,1.634042710E-1,6.518214345E-1,9.611522675E0
2.061404794E0,2.160767019E-1,6.709750295E-1,9.721655846E0
2.063402450E0,2.017114908E-1,7.523778677E-1,9.616311073E0
2.065400158E0,2.831143439E-1,6.374561787E-1,9.994594574E0
2.067397866E0,2.591723204E-1,5.895721912E-1,1.018134308E1
2.069395575E0,1.825578809E-1,6.230909824E-1,9.985017776E0
2.071393283E0,2.256535143E-1,8.050503135E-1,9.592369080E0
2.073390991E0,2.304419130E-1,9.103952050E-1,9.089587212E0
2.075388700E0,1.681926697E-1,8.529343605E-1,9.391256332E0
2.077386460E0,1.681926697E-1,6.949170232E-1,9.558850288E0
2.079384273E0,1.729810685E-1,6.422445774E-1,9.956287384E0
2.081382137E0,2.017114908E-1,7.475894690E-1,9.908403397E0
2.083380054E0,2.064998895E-1,8.337807655E-1,9.668983459E0
2.085378023E0,2.304419130E-1,8.050503135E-1,9.664195061E0
2.087376044E0,1.586158574E-1,7.428010702E-1,9.779116631E0
2.089374116E0,7.721300423E-2,5.991489887E-1,9.798270226E0
2.091372189E0,9.636662155E-2,6.087257862E-1,9.855731010E0
2.093370262E0,1.538274586E-1,7.428010702E-1,9.568427086E0
2.095368335E0,1.250970364E-1,7.667431235E-1,9.343372345E0
2.097366408E0,1.250970364E-1,5.991489887E-1,9.649829865E0
2.099364481E0,9.157821536E-2,4.363432527E-1,1.011430550E1
2.101362554E0,1.017535757E-2,5.081692934E-1,9.994594574E0
2.103360575E0,-6.643909961E-2,6.805518270E-1,9.443928719E0
2.105358179E0,-1.238999367E-1,7.140706778E-1,9.405621529E0
2.107355783E0,-1.095347255E-1,5.368997455E-1,9.850942612E0
2.109353387E0,-9.516951442E-2,5.368997455E-1,9.956287384E0
2.111350991E0,-1.095347255E-1,5.368997455E-1,9.721655846E0
2.113348596E0,-1.765723825E-1,5.464765429E-1,9.941922188E0
2.115346200E0,-3.106476665E-1,5.895721912E-1,9.836577415E0
2.117343804E0,-2.627636492E-1,6.613982320E-1,9.793481827E0
2.119341460E0,-2.100912035E-1,6.853402257E-1,9.692925453E0
2.121339169E0,-2.819172442E-1,7.380126715E-1,9.846154213E0
2.123336929E0,-2.723404467E-1,8.242039084E-1,9.372102737E0
2.125334741E0,-3.106476665E-1,8.337807655E-1,9.348160744E0
2.127332606E0,-3.298012912E-1,7.092822790E-1,9.932345390E0
2.129330523E0,-2.436100245E-1,7.571662664E-1,9.759963036E0
2.131328491E0,-2.867056429E-1,9.103952050E-1,9.731232643E0
2.133326512E0,-3.106476665E-1,1.106719732E0,9.463082314E0
2.135324585E0,-2.675520480E-1,9.582792521E-1,9.578003883E0
2.137322658E0,-2.196680009E-1,9.199720025E-1,1.031062984E1
2.139320731E0,-2.196680009E-1,1.159392118E0,9.697713852E0
2.141318804E0,-2.579752207E-1,1.307832718E0,9.204508781E0
2.143316877E0,-2.627636492E-1,1.197699428E0,9.573215485E0
2.145314950E0,-3.058592677E-1,1.044470549E0,9.788693428E0
2.147312971E0,-3.010708690E-1,1.130661726E0,9.831789017E0
2.149310835E0,-2.723404467E-1,1.173757434E0,9.707290649E0
2.151308648E0,-1.909375787E-1,1.030105233E0,9.774328232E0
2.153306148E0,-1.717839688E-1,9.630676508E-1,1.006163311E1
2.155303648E0,-1.813607812E-1,9.870096445E-1,9.898826599E0
2.157301148E0,-1.813607812E-1,1.073200941E0,9.544485092E0
2.159298648E0,-1.861491799E-1,1.039682031E0,9.434351921E0
2.161296148E0,-1.478419602E-1,8.816647530E-1,9.688137054E0
2.163293648E0,-1.478419602E-1,7.044938207E-1,1.031541824E1
2.165291148E0,-1.238999367E-1,1.030105233E0,9.396044731E0
2.167288700E0,-9.516951442E-2,1.049258947E0,8.936357498E0
2.169286304E0,-3.770867735E-2,9.103952050E-1,9.539696693E0
2.171283960E0,-1.376665942E-2,7.571662664E-1,9.980229378E0
2.173281669E0,1.975216344E-2,6.374561787E-1,9.745597839E0
2.175279481E0,1.394622475E-1,4.746504724E-1,1.070327854E1
2.177277346E0,6.284779310E-2,5.895721912E-1,1.006163311E1
2.179275262E0,-2.334346622E-2,7.380126715E-1,9.123106003E0
2.181273231E0,5.327098817E-2,7.715315223E-1,9.716867447E0
2.183271252E0,7.242459804E-2,8.002619147E-1,9.396044731E0
2.185269325E0,4.369417951E-2,7.667431235E-1,9.352949142E0
2.187267450E0,1.975216344E-2,4.890156984E-1,9.884461403E0
2.189265627E0,2.454056777E-2,4.602852762E-1,1.055483818E1
2.191263804E0,5.985504249E-4,8.050503135E-1,9.917980194E0
2.193261981E0,2.932897024E-2,9.822212458E-1,8.898050308E0
2.195260158E0,3.411737457E-2,9.008184075E-1,9.094375610E0
2.197258335E0,1.346738487E-1,5.656301379E-1,1.046864700E1
2.199256512E0,1.298854351E-1,5.416881442E-1,1.043512821E1
2.201254689E0,1.490390599E-1,8.098387122E-1,9.515754700E0
2.203252658E0,6.763619930E-2,9.678560495E-1,9.501389503E0
2.205250471E0,1.203086376E-1,9.103952050E-1,9.405621529E0
2.207248231E0,7.721300423E-2,7.523778677E-1,9.621099472E0
2.209245991E0,1.346738487E-1,4.985924959E-1,1.032499504E1
2.211243752E0,1.394622475E-1,4.698620737E-1,1.066497135E1
2.213241512E0,8.678980917E-2,8.433575630E-1,9.654618263E0
2.215239221E0,1.442506462E-1,9.103952050E-1,9.209297180E0
2.217236929E0,1.777694821E-1,8.481459618E-1,9.300276756E0
2.219234637E0,8.200141042E-2,7.811083198E-1,9.032125473E0
2.221232346E0,2.064998895E-1,5.943605900E-1,9.702502251E0
2.223230054E0,1.873462796E-1,4.746504724E-1,9.678560257E0
2.225227814E0,2.064998895E-1,3.262099922E-1,1.019570827E1
2.227225627E0,2.687491477E-1,3.501519859E-1,9.769539833E0
2.229223491E0,2.400187254E-1,2.974795699E-1,9.841365814E0
2.231221408E0,2.639607489E-1,2.400187254E-1,1.004247856E1
2.233219377E0,3.166331649E-1,2.160767019E-1,9.822212219E0
2.235217398E0,3.118447661E-1,2.974795699E-1,9.831789017E0
2.237215471E0,3.214215636E-1,2.687491477E-1,9.544485092E0
2.239213596E0,3.118447661E-1,2.495955229E-1,9.496601105E0
2.241211773E0,3.118447661E-1,2.639607489E-1,9.726444244E0
2.243210002E0,2.639607489E-1,9.157821536E-2,1.014782429E1
2.245208231E0,2.160767019E-1,5.805939063E-2,9.812635422E0
2.247206460E0,2.256535143E-1,5.386953708E-3,9.946710587E0
2.249204689E0,2.112883031E-1,2.454056777E-2,9.846154213E0
2.251202919E0,1.586158574E-1,1.681926697E-1,9.290699959E0
2.253200627E0,1.394622475E-1,2.831143439E-1,9.424775124E0
2.255198335E0,1.825578809E-1,1.921346933E-1,9.482235909E0
2.257196044E0,1.634042710E-1,7.721300423E-2,9.937133789E0
2.259193752E0,1.969230920E-1,1.442506462E-1,1.021007347E1
2.261191460E0,1.681926697E-1,4.459200799E-1,9.080010414E0
2.263189169E0,1.298854351E-1,3.357867897E-1,8.989029884E0
2.265186929E0,1.107318252E-1,-4.189853091E-3,1.044949341E1
2.267184741E0,1.586158574E-1,1.975216344E-2,1.021007347E1
2.269182606E0,1.586158574E-1,9.636662155E-2,9.683348656E0
2.271180523E0,1.538274586E-1,1.203086376E-1,1.004247856E1
2.273178491E0,1.394622475E-1,3.309983909E-1,9.367314339E0
2.275176512E0,9.636662155E-2,3.022679687E-1,8.989029884E0
2.277174585E0,5.327098817E-2,1.250970364E-1,9.678560257E0
2.279172710E0,1.490390599E-1,-4.249707982E-2,1.075116253E1
2.281170887E0,1.825578809E-1,7.721300423E-2,1.009994030E1
2.283169064E0,1.203086376E-1,4.602852762E-1,9.008183479E0
2.285167241E0,1.394622475E-1,5.512649417E-1,8.955511093E0
2.287165419E0,1.155202314E-1,2.208651006E-1,9.372102737E0
2.289163596E0,1.442506462E-1,-3.728969097E-1,1.081341171E1
2.291161773E0,1.107318252E-1,-1.430535465E-1,1.076073933E1
2.293159950E0,3.890577704E-2,3.549404144E-1,9.094375610E0
2.295157971E0,1.017535757E-2,4.459200799E-1,8.376114845E0
2.297155887E0,-1.376665942E-2,1.203086376E-1,9.831789017E0
2.299153648E0,-5.686229095E-2,-2.292448133E-1,1.042076302E1
2.301151408E0,1.975216344E-2,-3.776853085E-1,1.058356857E1
2.303149169E0,7.242459804E-2,-2.914940715E-1,1.026753426E1
2.305146929E0,5.386953708E-3,1.059434265E-1,9.453505516E0
2.307144689E0,-2.813187055E-2,5.129576921E-1,8.356961250E0
2.309142450E0,6.284779310E-2,2.448071241E-1,8.428787231E0
2.311140210E0,1.155202314E-1,-1.669955701E-1,9.913191795E0
2.313138023E0,1.107318252E-1,-5.500678420E-1,1.134013653E1
2.315135887E0,1.586158574E-1,-2.483984232E-1,1.005684471E1
2.317133804E0,1.203086376E-1,1.442506462E-1,9.214085579E0
2.319131773E0,2.017114908E-1,2.160767019E-1,9.410409927E0
2.321129794E0,1.921346933E-1,3.890577704E-2,9.448717117E0
2.323127866E0,2.208651006E-1,-1.478419602E-1,1.026753426E1
2.325125939E0,2.112883031E-1,-5.686229095E-2,1.059793377E1
2.327124012E0,1.921346933E-1,3.262099922E-1,9.463082314E0
2.329122085E0,2.017114908E-1,4.219780564E-1,9.051279068E0
2.331120158E0,1.873462796E-1,3.453635871E-1,9.453505516E0
2.333118231E0,1.777694821E-1,3.549404144E-1,9.491812706E0
2.335116304E0,2.304419130E-1,1.969230920E-1,1.009994030E1
2.337114169E0,2.591723204E-1,1.586158574E-1,1.082298851E1
2.339111825E0,3.166331649E-1,5.560533404E-1,9.558850288E0
2.341109481E0,4.411316514E-1,7.475894690E-1,8.850166321E0
2.343107137E0,4.363432527E-1,5.895721912E-1,9.415198326E0
2.345104794E0,4.267664552E-1,3.693056107E-1,9.879673004E0
2.347102450E0,4.363432527E-1,2.352303118E-1,1.036809063E1
2.349100106E0,4.219780564E-1,3.645172119E-1,9.822212219E0
2.351097762E0,4.315548539E-1,5.991489887E-1,9.036913872E0
2.353095419E0,3.788824081E-1,6.661866307E-1,8.864531517E0
2.355093127E0,4.267664552E-1,4.267664552E-1,9.927556992E0
2.357090887E0,4.219780564E-1,1.107318252E-1,1.086129570E1
2.359088700E0,3.884592354E-1,2.735375464E-1,1.013824749E1
2.361086564E0,3.501519859E-1,4.554968774E-1,9.300276756E0
2.363084481E0,3.070563674E-1,5.464765429E-1,9.319430351E0
2.365082450E0,2.400187254E-1,6.374561787E-1,9.218873978E0
2.367080471E0,2.591723204E-1,5.225345492E-1,9.554061890E0
2.369078544E0,2.304419130E-1,1.681926697E-1,1.032978344E1
2.371076616E0,1.634042710E-1,2.454056777E-2,1.061708736E1
2.373074689E0,1.825578809E-1,2.400187254E-1,1.000895977E1
2.375072762E0,1.825578809E-1,6.613982320E-1,9.046490669E0
2.377070835E0,1.825578809E-1,6.518214345E-1,9.022548676E0
2.379068908E0,1.298854351E-1,2.543839216E-1,9.951498985E0
2.381066981E0,2.208651006E-1,1.969230920E-1,1.032978344E1
2.383064950E0,2.926911712E-1,4.554968774E-1,9.932345390E0
2.385062919E0,2.974795699E-1,8.002619147E-1,9.329007149E0
2.387060835E0,2.400187254E-1,8.720879555E-1,8.835801125E0
2.389058648E0,2.256535143E-1,6.039373875E-1,9.549273491E0
2.391056460E0,1.681926697E-1,4.794389009E-1,1.030584145E1
2.393054169E0,1.873462796E-1,5.512649417E-1,9.999382973E0
2.395051877E0,2.448071241E-1,6.757634282E-1,9.668983459E0
2.397049585E0,2.495955229E-1,6.709750295E-1,9.774328232E0
2.399047294E0,3.501519859E-1,1.025316834E0,9.285911560E0
2.401045002E0,3.453635871E-1,9.247604012E-1,9.166201591E0
2.403042710E0,3.501519859E-1,5.225345492E-1,1.051653099E1
2.405040419E0,4.028244317E-1,4.076128304E-1,1.067454815E1
2.407038179E0,4.411316514E-1,6.518214345E-1,9.927556992E0
2.409035991E0,4.267664552E-1,7.858967185E-1,9.242815971E0
2.411033856E0,3.980360329E-1,8.672995567E-1,9.099164009E0
2.413031773E0,3.501519859E-1,6.374561787E-1,9.185355186E0
2.415029741E0,3.357867897E-1,2.304419130E-1,1.037287903E1
2.417027762E0,3.309983909E-1,3.501519859E-1,9.745597839E0
2.419025835E0,3.980360329E-1,4.363432527E-1,9.381679535E0
2.421023960E0,4.315548539E-1,3.597288132E-1,9.917980194E0
2.423022137E0,4.411316514E-1,3.118447661E-1,1.004726696E1
2.425020314E0,4.650736749E-1,3.980360329E-1,9.769539833E0
2.427018491E0,3.836708367E-1,2.639607489E-1,9.917980194E0
2.429016669E0,3.453635871E-1,1.538274586E-1,9.731232643E0
2.431014689E0,3.262099922E-1,1.490390599E-1,9.506177902E0
2.433012398E0,3.022679687E-1,2.448071241E-1,9.233239174E0
2.435010106E0,2.160767019E-1,2.639607489E-1,8.907627106E0
2.437007814E0,1.681926697E-1,3.890577704E-2,1.003290176E1
2.439005523E0,1.490390599E-1,-9.995792061E-2,1.095706367E1
2.441003231E0,1.490390599E-1,2.543839216E-1,9.597157478E0
2.443000939E0,8.678980917E-2,3.070563674E-1,9.348160744E0
2.444998648E0,1.975216344E-2,1.921346933E-1,9.783905029E0
2.446996356E0,3.411737457E-2,2.448071241E-1,9.788693428E0
2.448994064E0,4.848258570E-2,3.645172119E-1,9.668983459E0
2.450991773E0,1.975216344E-2,5.321113467E-1,9.946710587E0
2.452989481E0,3.411737457E-2,5.895721912E-1,9.683348656E0
2.454987189E0,4.369417951E-2,7.380126715E-1,9.118317604E0
2.456984950E0,4.369417951E-2,5.512649417E-1,9.697713852E0
2.458982762E0,1.496376097E-2,4.315548539E-1,1.010472870E1
2.460980627E0,3.411737457E-2,5.752069354E-1,9.922768593E0
2.462978491E0,1.011550203E-1,8.194155097E-1,9.783905029E0
2.464976356E0,1.011550203E-1,9.630676508E-1,9.099164009E0
2.466974221E0,1.346738487E-1,8.864531517E-1,9.161413193E0
2.468972137E0,3.411737457E-2,2.879027426E-1,1.042076302E1
2.470970106E0,-1.855506375E-2,1.155202314E-1,1.115338898E1
2.472968127E0,6.284779310E-2,6.087257862E-1,9.640253067E0
2.474966200E0,6.284779310E-2,9.774328470E-1,8.400056839E0
2.476964325E0,7.242459804E-2,9.151836038E-1,9.137471199E0
2.478962502E0,5.805939063E-2,5.608417392E-1,9.884461403E0
2.480960679E0,-3.770867735E-2,2.017114908E-1,9.870096207E0
2.482958856E0,-4.249707982E-2,-1.382651478E-1,1.120606136E1
2.484957033E0,2.932897024E-2,2.304419130E-1,1.068412495E1
2.486955210E0,1.496376097E-2,6.566098332E-1,8.792705536E0
2.488953387E0,3.411737457E-2,7.715315223E-1,8.534132004E0
2.490951460E0,5.985504249E-4,4.124012291E-1,9.458293915E0
2.492949481E0,-9.038111567E-2,-1.047463268E-1,1.068891335E1
2.494947502E0,-1.191115379E-1,1.490390599E-1,1.008078671E1
2.496945523E0,-5.686229095E-2,5.608417392E-1,9.036913872E0
2.498943544E0,-5.207388848E-2,5.847837925E-1,8.926780701E0
2.500941564E0,-5.207388848E-2,2.017114908E-1,1.012867069E1
2.502939429E0,-1.238999367E-1,8.200141042E-2,1.054047298E1
2.504937189E0,-9.995792061E-2,3.884592354E-1,9.482235909E0
2.506934950E0,-5.686229095E-2,3.980360329E-1,1.018134308E1
2.508932710E0,-3.292027488E-2,5.321113467E-1,9.616311073E0
2.510930471E0,-5.686229095E-2,6.183025837E-1,9.343372345E0
2.512928231E0,3.890577704E-2,5.129576921E-1,9.668983459E0
2.514925991E0,1.017535757E-2,4.171896577E-1,1.046864700E1
2.516923804E0,3.890577704E-2,6.518214345E-1,9.405621529E0
2.518921669E0,5.327098817E-2,8.098387122E-1,9.467870712E0
2.520919585E0,1.250970364E-1,9.726444483E-1,9.199720383E0
2.522917554E0,9.157821536E-2,7.954735160E-1,9.261969566E0
2.524915575E0,1.442506462E-1,5.512649417E-1,1.027711105E1
2.526913648E0,4.848258570E-2,4.794389009E-1,1.017176628E1
2.528911773E0,6.284779310E-2,4.219780564E-1,1.000895977E1
2.530909950E0,9.636662155E-2,4.985924959E-1,1.025316906E1
2.532908179E0,1.586158574E-1,7.667431235E-1,9.233239174E0
2.534906408E0,8.678980917E-2,7.811083198E-1,8.898050308E0
2.536904637E0,1.442506462E-1,5.129576921E-1,9.779116631E0
2.538902866E0,1.442506462E-1,2.256535143E-1,1.043512821E1
2.540901096E0,1.538274586E-1,4.219780564E-1,9.621099472E0
2.542899169E0,1.681926697E-1,5.560533404E-1,8.989029884E0
2.544897241E0,9.157821536E-2,3.411737457E-2,1.005684471E1
2.546895314E0,8.200141042E-2,-1.430535465E-1,1.062666416E1
2.548893387E0,1.681926697E-1,2.495955229E-1,1.015740108E1
2.550891408E0,2.160767019E-1,7.236474752E-1,8.807070732E0
2.552889429E0,2.304419130E-1,8.242039084E-1,8.567650795E0
2.554887450E0,2.448071241E-1,4.938040972E-1,9.664195061E0
2.556885471E0,2.112883031E-1,2.591723204E-1,9.903614998E0
2.558883491E0,1.107318252E-1,1.203086376E-1,9.759963036E0
2.560881512E0,1.107318252E-1,3.411737457E-2,1.060751057E1
2.562879533E0,1.873462796E-1,2.208651006E-1,1.055483818E1
2.564877554E0,2.831143439E-1,5.464765429E-1,9.089587212E0
2.566875575E0,3.118447661E-1,1.634042710E-1,1.006642151E1
2.568873596E0,2.448071241E-1,7.954735160E-1,8.984241486E0
2.570871616E0,1.634042710E-1,7.380126715E-1,8.088809967E0
2.572869637E0,1.496376097E-2,-6.643909961E-2,1.012867069E1
2.574867658E0,2.932897024E-2,-4.255693555E-1,1.182376480E1
2.576865523E0,1.729810685E-1,4.124012291E-1,9.841365814E0
2.578863387E0,2.495955229E-1,8.768763542E-1,8.280346870E0
2.580861252E0,1.969230920E-1,6.326677799E-1,9.094375610E0
2.582859116E0,1.298854351E-1,2.639607489E-1,1.013824749E1
2.584856981E0,4.369417951E-2,1.975216344E-2,1.081341171E1
2.586854846E0,6.284779310E-2,3.022679687E-1,9.712079048E0
2.588852710E0,5.805939063E-2,4.938040972E-1,9.118317604E0
2.590850575E0,6.763619930E-2,4.028244317E-1,9.376891136E0
2.592848439E0,4.369417951E-2,1.825578809E-1,9.980229378E0
2.594846304E0,1.496376097E-2,2.454056777E-2,9.994594574E0
2.596844221E0,5.327098817E-2,1.059434265E-1,9.874884605E0
2.598842189E0,5.985504249E-4,2.112883031E-1,9.759963036E0
2.600840210E0,6.763619930E-2,2.639607489E-1,9.736021042E0
2.602838283E0,2.454056777E-2,1.250970364E-1,9.530119896E0
2.604836356E0,-2.334346622E-2,-1.765723825E-1,1.050695419E1
2.606834429E0,6.284779310E-2,7.242459804E-2,9.855731010E0
2.608832502E0,6.763619930E-2,2.495955229E-1,9.012971878E0
2.610830575E0,7.242459804E-2,3.022679687E-1,9.194931984E0
2.612828491E0,-4.189853091E-3,1.155202314E-1,9.764751434E0
2.614826304E0,5.327098817E-2,9.636662155E-2,1.000417137E1
2.616824116E0,9.636662155E-2,1.346738487E-1,9.884461403E0
2.618821929E0,1.203086376E-1,1.777694821E-1,1.001374817E1
2.620819741E0,1.059434265E-1,2.974795699E-1,9.281123161E0
2.622817554E0,2.932897024E-2,1.975216344E-2,1.013824749E1
2.624815366E0,3.890577704E-2,1.496376097E-2,1.070806694E1
2.626813179E0,4.369417951E-2,3.118447661E-1,9.305065155E0
2.628810991E0,-1.376665942E-2,4.171896577E-1,8.969876289E0
2.630808804E0,-6.643909961E-2,2.831143439E-1,9.103952408E0
2.632806616E0,-1.191115379E-1,1.203086376E-1,9.870096207E0
2.634804481E0,-1.861491799E-1,2.400187254E-1,9.563638687E0
2.636802398E0,-7.601590455E-2,2.831143439E-1,9.922768593E0
2.638800366E0,-1.143231317E-1,2.495955229E-1,9.654618263E0
2.640798335E0,-1.430535465E-1,3.411737457E-2,1.084214211E1
2.642796304E0,-2.053027898E-1,9.636662155E-2,1.018134308E1
2.644794273E0,-1.717839688E-1,4.650736749E-1,9.290699959E0
2.646792241E0,-2.100912035E-1,6.039373875E-1,8.960299492E0
2.648790210E0,-1.861491799E-1,4.554968774E-1,9.218873978E0
2.650788179E0,-2.100912035E-1,3.262099922E-1,9.750386238E0
2.652786200E0,-2.005143911E-1,1.538274586E-1,9.961075783E0
2.654784273E0,-2.148796022E-1,1.777694821E-1,1.030584145E1
2.656782398E0,-2.292448133E-1,1.155202314E-1,1.000417137E1
2.658780523E0,-1.430535465E-1,4.076128304E-1,9.755174637E0
2.660778700E0,-9.038111567E-2,6.757634282E-1,8.965087891E0
2.662776929E0,-1.669955701E-1,6.039373875E-1,8.577227592E0
2.664775158E0,-2.100912035E-1,2.208651006E-1,1.043991661E1
2.666773387E0,-8.080431074E-2,1.250970364E-1,1.110550499E1
2.668771616E0,-1.382651478E-1,3.405751884E-1,9.846154213E0
2.670769846E0,-1.574187577E-1,7.044938207E-1,9.779116631E0
2.672768075E0,-1.286883354E-1,9.295488000E-1,8.989029884E0
2.674766304E0,-1.957259923E-1,9.056068063E-1,8.984241486E0
2.676764533E0,-2.005143911E-1,8.577227592E-1,9.812635422E0
2.678762762E0,-1.191115379E-1,8.289923668E-1,9.697713852E0
2.680760991E0,-1.191115379E-1,7.811083198E-1,9.544485092E0
2.682759064E0,-1.430535465E-1,6.853402257E-1,9.649829865E0
2.684757137E0,-2.053027898E-1,8.146271110E-1,1.088523769E1
2.686755210E0,1.250970364E-1,1.140238523E0,1.017176628E1
2.688753283E0,1.298854351E-1,1.322197914E0,9.084798813E0
2.690751356E0,8.678980917E-2,1.379658699E0,9.913191795E0
2.692749429E0,1.490390599E-1,1.566406488E0,9.285911560E0
2.694747502E0,5.805939063E-2,1.566406488E0,8.840589523E0
2.696745575E0,1.250970364E-1,1.346139908E0,9.702502251E0
2.698743335E0,1.873462796E-1,1.427542806E0,1.020049667E1
2.700741096E0,2.926911712E-1,1.528099179E0,9.812635422E0
2.702738856E0,3.262099922E-1,1.518522382E0,9.889249802E0
2.704736616E0,4.315548539E-1,1.513733983E0,1.023880386E1
2.706734377E0,5.129576921E-1,1.676539779E0,9.692925453E0
2.708732137E0,5.321113467E-1,1.633444071E0,9.429563522E0
2.710729898E0,5.177460909E-1,1.427542806E0,9.774328232E0
2.712727710E0,4.650736749E-1,1.508945584E0,9.874884605E0
2.714725575E0,5.177460909E-1,1.695693374E0,9.180566788E0
2.716723491E0,5.991489887E-1,1.556829691E0,9.970652580E0
2.718721460E0,6.901286244E-1,1.662174582E0,1.010472870E1
2.720719481E0,6.709750295E-1,1.575983286E0,9.592369080E0
2.722717554E0,6.853402257E-1,1.523310781E0,1.009515190E1
2.724715679E0,6.613982320E-1,1.690904975E0,1.008557510E1
2.726713804E0,7.188590765E-1,1.901594758E0,8.926780701E0
2.728711929E0,7.188590765E-1,1.681328177E0,1.032978344E1
2.730710054E0,8.242039084E-1,2.131438017E0,9.606734276E0
2.732708179E0,8.098387122E-1,2.241571426E0,8.428787231E0
2.734705991E0,6.997054219E-1,1.824980259E0,8.658630371E0
2.736703804E0,6.135141850E-1,1.532887697E0,9.951498985E0
2.738701616E0,7.380126715E-1,1.336563110E0,1.167053604E1
2.740699429E0,9.199720025E-1,1.489791989E0,1.121084976E1
2.742697241E0,9.822212458E-1,1.901594758E0,1.000417137E1
2.744695054E0,9.965864420E-1,2.193687201E0,8.414422035E0
2.746692866E0,8.577227592E-1,1.954267144E0,8.404845238E0
2.748690679E0,8.481459618E-1,1.920748353E0,8.740033150E0
2.750688491E0,7.715315223E-1,1.710058570E0,9.463082314E0
2.752686304E0,7.236474752E-1,1.168969035E0,1.082298851E1
2.754684116E0,7.571662664E-1,1.255160213E0,1.114860058E1
2.756681929E0,8.864531517E-1,1.518522382E0,1.036330223E1
2.758679741E0,8.720879555E-1,1.686116576E0,9.238027573E0
2.760677554E0,6.805518270E-1,1.341351509E0,9.477447510E0
2.762675366E0,5.799953341E-1,1.140238523E0,9.625887871E0
2.764673179E0,4.794389009E-1,1.092354536E0,1.001374817E1
2.766670835E0,6.039373875E-1,1.547252893E0,9.132682800E0
2.768668491E0,5.321113467E-1,1.465849996E0,8.735244751E0
2.770666148E0,3.262099922E-1,9.008184075E-1,9.376891136E0
2.772663804E0,3.166331649E-1,9.439139962E-1,9.927556992E0
2.774661460E0,3.980360329E-1,1.121084929E0,9.975440979E0
2.776659116E0,4.315548539E-1,1.092354536E0,1.011909389E1
2.778656773E0,3.836708367E-1,9.822212458E-1,9.879673004E0
2.780654429E0,2.256535143E-1,8.337807655E-1,9.654618263E0
2.782652137E0,1.155202314E-1,8.481459618E-1,9.630676270E0
2.784649898E0,1.538274586E-1,1.269525409E0,9.276334763E0
2.786647710E0,7.242459804E-2,1.101931334E0,9.161413193E0
2.788645575E0,-6.643909961E-2,8.433575630E-1,9.290699959E0
2.790643439E0,-9.995792061E-2,6.661866307E-1,1.052131939E1
2.792641356E0,-1.376665942E-2,7.667431235E-1,1.086608410E1
2.794639325E0,-1.622071713E-1,9.247604012E-1,9.376891136E0
2.796637294E0,-2.867056429E-1,1.121084929E0,9.084798813E0
2.798635262E0,-2.579752207E-1,1.413177609E0,9.616311073E0
2.800633231E0,-2.531868219E-1,1.389235497E0,9.913191795E0
2.802631200E0,-2.579752207E-1,1.044470549E0,1.075595093E1
2.804629169E0,-3.250128925E-1,9.199720025E-1,1.023880386E1
2.806627137E0,-4.207809567E-1,1.245583415E0,9.980229378E0
2.808625106E0,-4.590881765E-1,1.686116576E0,8.423998833E0
2.810623075E0,-4.782418013E-1,1.326986313E0,9.989806175E0
2.812621044E0,-4.973953962E-1,1.748365760E0,8.926780701E0
2.814619012E0,-5.548562407E-1,1.829768658E0,8.467094421E0
2.816616981E0,-4.782418013E-1,1.609502077E0,9.578003883E0
2.818614898E0,-4.830302000E-1,1.044470549E0,1.079425812E1
2.820612814E0,-4.782418013E-1,8.385691643E-1,1.067454815E1
2.822610731E0,-4.112041295E-1,1.135450125E0,1.002332497E1
2.824608596E0,-5.165489912E-1,9.439139962E-1,1.031062984E1
2.826606356E0,-5.883750916E-1,1.077989340E0,9.405621529E0
2.828604116E0,-6.889315248E-1,1.092354536E0,8.917203903E0
2.830601877E0,-6.985083222E-1,1.111508131E0,9.242815971E0
2.832599637E0,-6.123170853E-1,1.154603720E0,9.257181168E0
2.834597398E0,-5.213374496E-1,9.391255975E-1,9.309853554E0
2.836595158E0,-4.830302000E-1,1.442506462E-1,1.144069290E1
2.838592919E0,-4.926069975E-1,3.501519859E-1,1.114381218E1
2.840590679E0,-4.495113790E-1,1.044470549E0,8.936357498E0
2.842588439E0,-4.159925580E-1,1.355716705E0,7.696161270E0
2.844586200E0,-4.638765752E-1,9.295488000E-1,8.931569099E0
2.846584012E0,-3.872621357E-1,3.884592354E-1,1.123958015E1
2.848581825E0,-2.675520480E-1,-8.559270948E-2,1.177109241E1
2.850579689E0,-3.681085110E-1,3.645172119E-1,9.841365814E0
2.852577606E0,-4.255693555E-1,1.006163239E0,8.356961250E0
2.854575575E0,-3.920505345E-1,9.965864420E-1,8.802282333E0
2.856573544E0,-3.298012912E-1,7.140706778E-1,9.597157478E0
2.858571512E0,-2.867056429E-1,4.746504724E-1,1.101452446E1
2.860569481E0,-2.723404467E-1,3.309983909E-1,1.025795746E1
2.862567450E0,-4.207809567E-1,5.991489887E-1,8.854954720E0
2.864565419E0,-4.112041295E-1,8.146271110E-1,9.582792282E0
2.866563387E0,-3.058592677E-1,9.151836038E-1,9.491812706E0
2.868561356E0,-2.340332121E-1,8.768763542E-1,9.257181168E0
2.870559325E0,-1.622071713E-1,8.337807655E-1,9.554061890E0
2.872557294E0,-2.005143911E-1,4.650736749E-1,1.074158573E1
2.874555262E0,-1.382651478E-1,6.422445774E-1,9.640253067E0
2.876553075E0,-1.574187577E-1,7.140706778E-1,9.482235909E0
2.878550887E0,-4.728548229E-2,6.135141850E-1,1.012388229E1
2.880548648E0,1.496376097E-2,6.949170232E-1,1.008078671E1
2.882546304E0,1.496376097E-2,9.056068063E-1,8.160636902E0
2.884543960E0,1.975216344E-2,1.586158574E-1,1.043033981E1
2.886541616E0,8.200141042E-2,6.183025837E-1,9.922768593E0
2.888539273E0,1.681926697E-1,7.523778677E-1,9.443928719E0
2.890536929E0,2.352303118E-1,4.076128304E-1,1.022922707E1
2.892534585E0,2.687491477E-1,4.842272997E-1,9.745597839E0
2.894532241E0,2.064998895E-1,4.650736749E-1,9.281123161E0
2.896529898E0,1.873462796E-1,4.076128304E-1,9.400833130E0
2.898527554E0,2.304419130E-1,9.157821536E-2,1.030105305E1
2.900525210E0,1.873462796E-1,3.890577704E-2,1.006642151E1
2.902522866E0,2.112883031E-1,4.369417951E-2,1.030584145E1
2.904520523E0,2.639607489E-1,2.783259451E-1,9.654618263E0
2.906518179E0,3.357867897E-1,6.470330358E-1,8.768763542E0
2.908515835E0,2.495955229E-1,1.490390599E-1,9.290699959E0
2.910513491E0,3.118447661E-1,-1.909375787E-1,1.042555141E1
2.912511148E0,3.884592354E-1,1.059434265E-1,1.005684471E1
2.914508804E0,4.650736749E-1,1.059434265E-1,9.903614998E0
2.916506460E0,5.464765429E-1,1.921346933E-1,9.712079048E0
2.918504116E0,5.416881442E-1,3.693056107E-1,9.123106003E0
2.920501773E0,4.985924959E-1,-1.861491799E-1,9.798270226E0
2.922499481E0,5.416881442E-1,-1.376665942E-2,9.285911560E0
2.924497241E0,5.704185367E-1,5.386953708E-3,9.329007149E0
2.926495054E0,6.135141850E-1,-2.053027898E-1,9.635464668E0
2.928492919E0,6.470330358E-1,-3.202244639E-1,9.903614998E0
2.930490783E0,6.709750295E-1,-3.824737072E-1,1.005684471E1
2.932488648E0,7.667431235E-1,-4.159925580E-1,1.009994030E1
2.934486512E0,7.428010702E-1,-3.106476665E-1,9.324218750E0
2.936484377E0,7.140706778E-1,-7.655459642E-1,9.817423820E0
2.938482241E0,6.757634282E-1,-7.368155718E-1,9.755174637E0
2.940480158E0,7.236474752E-1,-2.292448133E-1,8.754398346E0
2.942478127E0,7.332242727E-1,-6.266822815E-1,9.601945877E0
2.944476148E0,7.188590765E-1,-9.044097066E-1,1.016697788E1
2.946474169E0,7.188590765E-1,-7.032967210E-1,9.731232643E0
2.948472189E0,7.475894690E-1,-5.069721937E-1,9.443928719E0
2.950470210E0,7.571662664E-1,-7.799112201E-1,9.908403397E0
2.952468231E0,7.188590765E-1,-8.756792545E-1,9.879673004E0
2.954466252E0,6.422445774E-1,-6.027402878E-1,9.257181168E0
2.956464273E0,5.799953341E-1,-7.032967210E-1,9.913191795E0
2.958462294E0,5.656301379E-1,-8.421604633E-1,1.015740108E1
2.960460314E0,4.842272997E-1,-1.033696532E0,1.112465858E1
2.962458335E0,4.124012291E-1,-5.883750916E-1,9.994594574E0
2.964456356E0,3.597288132E-1,-2.196680009E-1,8.725667953E0
2.966454377E0,2.256535143E-1,-1.574187577E-1,8.696937561E0
2.968452398E0,2.208651006E-1,-1.855506375E-2,9.113529205E0
2.970450366E0,1.777694821E-1,-1.047463268E-1,9.247604370E0
2.972448283E0,1.729810685E-1,-3.537433147E-1,9.836577415E0
2.974446200E0,1.346738487E-1,-8.277952671E-1,1.147900009E1
2.976444116E0,1.394622475E-1,-6.362590790E-1,1.151251888E1
2.978442033E0,1.011550203E-1,-2.340332121E-1,9.266757965E0
2.980439950E0,5.985504249E-4,1.155202314E-1,8.021772385E0
2.982437658E0,-1.861491799E-1,-8.559270948E-2,9.712079048E0
2.984435366E0,-1.238999367E-1,-3.106476665E-1,1.024359226E1
2.986433075E0,-1.143231317E-1,-5.548562407E-1,1.098579407E1
2.988430783E0,-1.286883354E-1,-1.478419602E-1,9.645041466E0
2.990428491E0,-2.819172442E-1,-1.669955701E-1,9.228450775E0
2.992426200E0,-2.292448133E-1,3.022679687E-1,8.500613213E0
2.994423960E0,-1.957259923E-1,3.890577704E-2,9.147047997E0
2.996421773E0,-1.765723825E-1,-4.590881765E-1,1.023880386E1
2.998419637E0,-2.148796022E-1,-3.345896900E-1,1.049258900E1
3.000417554E0,-1.813607812E-1,-1.957259923E-1,1.037766743E1
3.002415471E0,-6.643909961E-2,-1.143231317E-1,9.477447510E0
3.004413387E0,-1.334767491E-1,1.496376097E-2,9.065644264E0
3.006411304E0,-2.867056429E-1,-3.728969097E-1,9.836577415E0
3.008409221E0,-2.867056429E-1,-4.016273320E-1,9.568427086E0
3.010407137E0,-2.436100245E-1,-5.261258483E-1,1.061708736E1
3.012405054E0,-1.430535465E-1,8.678980917E-2,8.921992302E0
3.014402971E0,-9.038111567E-2,1.681926697E-1,8.653841972E0
3.016400887E0,-1.286883354E-1,-5.117605925E-1,1.024359226E1
3.018398804E0,-2.531868219E-1,-9.235633016E-1,1.066497135E1
3.020396721E0,-2.819172442E-1,-9.235633016E-1,1.144069290E1
3.022394637E0,-3.058592677E-1,-1.430535465E-1,8.701725960E0
3.024392554E0,-3.010708690E-1,1.346738487E-1,7.983465672E0
3.026390471E0,-3.681085110E-1,-9.516951442E-2,9.070432663E0
3.028388387E0,-4.016273320E-1,-6.793547273E-1,1.053089619E1
3.030386304E0,-4.159925580E-1,-7.894880176E-1,1.078468132E1
3.032383856E0,-3.537433147E-1,-8.373720646E-1,1.095227528E1
3.034381356E0,-3.776853085E-1,-2.196680009E-1,9.396044731E0
3.036378856E0,-4.159925580E-1,-1.622071713E-1,8.433575630E0
3.038376356E0,-4.638765752E-1,-3.441664875E-1,8.735244751E0
3.040373856E0,-3.968389332E-1,-4.495113790E-1,9.209297180E0
3.042371356E0,-2.771288455E-1,-1.086369038E0,1.223556805E1
3.044368856E0,-1.574187577E-1,-7.942764163E-1,1.044949341E1
3.046366356E0,-2.483984232E-1,-2.436100245E-1,8.534132004E0
3.048363908E0,-3.585317135E-1,-4.249707982E-2,8.395268440E0
3.050361512E0,-4.112041295E-1,-3.537433147E-1,8.361749649E0
3.052359169E0,-4.255693555E-1,-8.373720646E-1,1.047343540E1
3.054356877E0,-1.909375787E-1,-1.024119735E0,1.176630402E1
3.056354637E0,-1.669955701E-1,-5.644330382E-1,9.894038200E0
3.058352450E0,-3.298012912E-1,-7.176619768E-1,9.582792282E0
3.060350314E0,-3.776853085E-1,-8.373720646E-1,9.855731010E0
3.062348179E0,-4.399345517E-1,-7.751228213E-1,9.487024307E0
3.064346044E0,-3.968389332E-1,-4.926069975E-1,9.257181168E0
3.066343908E0,-4.207809567E-1,-3.298012912E-1,9.089587212E0
3.068341773E0,-4.830302000E-1,-5.979518890E-1,9.099164009E0
3.070339637E0,-5.117605925E-1,-9.235633016E-1,9.668983459E0
3.072337294E0,-4.159925580E-1,-1.048061848E0,1.053089619E1
3.074334846E0,-3.345896900E-1,-1.004966140E0,1.153646088E1
3.076332398E0,-4.112041295E-1,-6.554127336E-1,8.926780701E0
3.078329950E0,-5.261258483E-1,-6.745663285E-1,8.304288864E0
3.080327502E0,-5.357026458E-1,-8.373720646E-1,9.975440979E0
3.082325054E0,-5.117605925E-1,-9.187749028E-1,1.055004978E1
3.084322606E0,-4.590881765E-1,-5.596446395E-1,9.008183479E0
3.086320158E0,-4.973953962E-1,-9.187749028E-1,9.712079048E0
3.088317710E0,-5.165489912E-1,-1.153406620E0,1.044470501E1
3.090315314E0,-4.303577542E-1,-1.225232720E0,1.060272217E1
3.092312971E0,-4.351461530E-1,-9.379284978E-1,9.113529205E0
3.094310679E0,-3.633201122E-1,-9.187749028E-1,9.151836395E0
3.096308439E0,-3.633201122E-1,-1.282693505E0,1.017655468E1
3.098306252E0,-3.920505345E-1,-1.502960086E0,1.083256531E1
3.100304116E0,-4.016273320E-1,-1.033696532E0,9.194931984E0
3.102302033E0,-4.159925580E-1,-7.703344226E-1,8.514978409E0
3.104300002E0,-3.776853085E-1,-7.990648150E-1,8.888473511E0
3.106298023E0,-2.914940715E-1,-1.115099430E0,9.755174637E0
3.108296096E0,-3.010708690E-1,-1.397615194E0,9.989806175E0
3.110294221E0,-2.483984232E-1,-1.364096403E0,1.052131939E1
3.112292346E0,-1.334767491E-1,-1.397615194E0,1.109592819E1
3.114290471E0,-1.622071713E-1,-9.522937536E-1,8.835801125E0
3.116288596E0,-2.627636492E-1,-8.038532138E-1,8.423998833E0
3.118286721E0,-3.202244639E-1,-1.100734234E0,1.008078671E1
3.120284741E0,-2.148796022E-1,-1.177348733E0,1.024359226E1
3.122282398E0,-3.106476665E-1,-1.052850246E0,9.357737541E0
3.124280054E0,-2.100912035E-1,-8.948329091E-1,9.314641953E0
3.126277710E0,-2.292448133E-1,-1.033696532E0,1.008078671E1
3.128275366E0,-1.574187577E-1,-1.100734234E0,1.081341171E1
3.130273023E0,-9.995792061E-2,-8.948329091E-1,1.009994030E1
3.132270679E0,-2.388216257E-1,-5.404910445E-1,8.720879555E0
3.134268335E0,-3.106476665E-1,-6.266822815E-1,9.400833130E0
3.136266044E0,-2.627636492E-1,-6.602011323E-1,9.329007149E0
3.138263804E0,-2.196680009E-1,-7.559691668E-1,1.021965027E1
3.140261564E0,-2.579752207E-1,-8.756792545E-1,1.039203262E1
3.142259325E0,-2.053027898E-1,-7.894880176E-1,1.021007347E1
3.144257085E0,-2.196680009E-1,-3.681085110E-1,9.257181168E0
3.146254846E0,-2.579752207E-1,-4.159925580E-1,9.625887871E0
3.148252658E0,-2.723404467E-1,-4.447229803E-1,9.506177902E0
3.150250523E0,-2.483984232E-1,-4.734533727E-1,9.501389503E0
3.152248439E0,-1.813607812E-1,-6.027402878E-1,9.678560257E0
3.154246408E0,-1.909375787E-1,-6.171054840E-1,1.020528507E1
3.156244429E0,-7.601590455E-2,-6.458359361E-1,9.980229378E0
3.158242502E0,3.411737457E-2,-3.585317135E-1,9.266757965E0
3.160240627E0,-1.376665942E-2,-3.154360652E-1,9.190143585E0
3.162238804E0,3.890577704E-2,-5.117605925E-1,1.017655468E1
3.164237033E0,5.805939063E-2,-7.942764163E-1,9.941922188E0
3.166235262E0,2.932897024E-2,-7.607575655E-1,9.625887871E0
3.168233491E0,5.985504249E-4,-7.703344226E-1,1.010472870E1
3.170231721E0,6.763619930E-2,-7.080851793E-1,1.051653099E1
3.172229950E0,4.369417951E-2,-8.978256024E-3,8.620323181E0
3.174228179E0,-8.978256024E-3,-1.855506375E-2,8.562862396E0
3.176226096E0,-9.516951442E-2,-7.559691668E-1,1.045428181E1
3.178223908E0,-1.286883354E-1,-8.421604633E-1,1.086129570E1
3.180221721E0,-5.207388848E-2,-4.447229803E-1,9.870096207E0
3.182219533E0,-9.038111567E-2,-1.855506375E-2,8.917203903E0
3.184217346E0,-1.334767491E-1,-1.574187577E-1,9.578003883E0
3.186215158E0,-1.047463268E-1,-4.255693555E-1,9.554061890E0
3.188212658E0,-1.430535465E-1,-5.309142470E-1,1.022922707E1
3.190210054E0,-9.995792061E-2,-2.962824702E-1,9.683348656E0
3.192207450E0,-8.559270948E-2,-2.100912035E-1,8.936357498E0
3.194204846E0,-1.238999367E-1,-3.537433147E-1,9.688137054E0
3.196202241E0,-5.207388848E-2,-7.176619768E-1,1.021486187E1
3.198199637E0,-1.855506375E-2,-8.469488621E-1,1.029147625E1
3.200197033E0,-4.249707982E-2,-4.542997777E-1,9.568427086E0
3.202194481E0,-8.080431074E-2,-4.207809567E-1,9.080010414E0
3.204191981E0,-7.122749835E-2,-3.920505345E-1,9.487024307E0
3.206189533E0,5.386953708E-3,-6.745663285E-1,1.010951710E1
3.208187137E0,5.327098817E-2,-6.410474777E-1,1.001853657E1
3.210184846E0,1.017535757E-2,-5.357026458E-1,9.750386238E0
3.212182658E0,4.369417951E-2,-5.835866928E-1,9.664195061E0
3.214180575E0,5.985504249E-4,-6.171054840E-1,9.630676270E0
3.216178596E0,1.017535757E-2,-5.165489912E-1,1.007599831E1
3.218176721E0,3.890577704E-2,-5.117605925E-1,1.018134308E1
3.220174898E0,5.386953708E-3,-2.962824702E-1,8.835801125E0
3.222173127E0,-7.122749835E-2,-5.357026458E-1,9.697713852E0
3.224171408E0,-1.855506375E-2,-4.734533727E-1,9.798270226E0
3.226169689E0,-4.189853091E-3,-3.441664875E-1,9.534908295E0
3.228167971E0,-3.292027488E-2,-4.782418013E-1,1.027711105E1
3.230166252E0,2.932897024E-2,-4.495113790E-1,9.601945877E0
3.232164012E0,-1.376665942E-2,-3.345896900E-1,9.654618263E0
3.234161773E0,4.369417951E-2,-2.723404467E-1,1.025795746E1
3.236159533E0,1.975216344E-2,-2.436100245E-1,9.544485092E0
3.238157294E0,5.985504249E-4,-1.765723825E-1,9.290699959E0
3.240155054E0,-4.249707982E-2,-2.914940715E-1,9.831789017E0
3.242152814E0,-3.292027488E-2,-3.968389332E-1,9.769539833E0
3.244150575E0,-3.770867735E-2,-2.962824702E-1,1.012388229E1
3.246148283E0,1.017535757E-2,-2.340332121E-1,9.659406662E0
3.248145991E0,1.496376097E-2,-1.574187577E-1,9.367314339E0
3.250143700E0,-5.207388848E-2,-2.723404467E-1,9.539696693E0
3.252141408E0,-4.249707982E-2,-2.819172442E-1,9.889249802E0
3.254139116E0,-6.643909961E-2,-2.388216257E-1,9.621099472E0
3.256136825E0,-6.165069342E-2,-3.010708690E-1,9.697713852E0
3.258134533E0,-3.770867735E-2,-3.250128925E-1,9.554061890E0
3.260132241E0,1.975216344E-2,-5.883750916E-1,1.023880386E1
3.262130002E0,5.386953708E-3,-5.835866928E-1,1.010472870E1
3.264127762E0,-2.334346622E-2,-2.723404467E-1,9.180566788E0
3.266125575E0,-3.292027488E-2,-2.196680009E-1,8.783128738E0
3.268123439E0,-2.813187055E-2,-3.920505345E-1,9.506177902E0
3.270121356E0,4.369417951E-2,-7.080851793E-1,1.021965027E1
3.272119325E0,1.496376097E-2,-7.894880176E-1,1.052131939E1
3.274117346E0,4.848258570E-2,-3.489548862E-1,9.597157478E0
3.276115419E0,-3.292027488E-2,-2.053027898E-1,9.257181168E0
3.278113491E0,-4.189853091E-3,-2.005143911E-1,9.836577415E0
3.280111564E0,1.975216344E-2,-2.053027898E-1,9.199720383E0
3.282109637E0,-1.376665942E-2,-4.255693555E-1,9.769539833E0
3.284107710E0,6.284779310E-2,-5.548562407E-1,1.050216579E1
3.286105419E0,1.107318252E-1,-3.393780887E-1,9.515754700E0
3.288103127E0,4.369417951E-2,-2.627636492E-1,9.750386238E0
3.290100835E0,6.284779310E-2,-2.819172442E-1,9.630676270E0
3.292098544E0,6.763619930E-2,-4.255693555E-1,9.831789017E0
3.294096252E0,4.848258570E-2,-4.207809567E-1,9.946710587E0
3.296093960E0,-4.189853091E-3,-3.250128925E-1,9.223662376E0
3.298091669E0,5.985504249E-4,-4.255693555E-1,9.396044731E0
3.300089429E0,-2.813187055E-2,-6.266822815E-1,9.860519409E0
3.302087189E0,5.985504249E-4,-6.362590790E-1,1.007599831E1
3.304085002E0,-4.189853091E-3,-5.835866928E-1,9.668983459E0
3.306082866E0,-5.207388848E-2,-7.128735781E-1,9.999382973E0
3.308080731E0,-2.334346622E-2,-8.996213078E-1,1.021965027E1
3.310078596E0,-9.516951442E-2,-7.128735781E-1,9.654618263E0
3.312076460E0,-3.770867735E-2,-4.159925580E-1,9.209297180E0
3.314074325E0,-1.286883354E-1,-4.016273320E-1,8.898050308E0
3.316072189E0,-1.095347255E-1,-7.990648150E-1,9.759963036E0
3.318070054E0,-2.813187055E-2,-1.110311031E0,1.076073933E1
3.320067919E0,-9.038111567E-2,-8.086416125E-1,9.898826599E0
3.322065783E0,-1.334767491E-1,-6.506243348E-1,9.491812706E0
3.324063648E0,-1.191115379E-1,-5.787982345E-1,9.142259598E0
3.326061512E0,-1.813607812E-1,-8.277952671E-1,9.578003883E0
3.328059377E0,-1.143231317E-1,-9.139865041E-1,1.002811337E1
3.330057241E0,-1.143231317E-1,-8.948329091E-1,9.980229378E0
3.332055106E0,-1.430535465E-1,-7.416039705E-1,9.578003883E0
3.334052971E0,-8.559270948E-2,-5.500678420E-1,9.424775124E0
3.336050835E0,-1.855506375E-2,-6.889315248E-1,9.745597839E0
3.338048752E0,2.932897024E-2,-7.990648150E-1,1.013345909E1
3.340046721E0,-2.334346622E-2,-7.128735781E-1,9.922768593E0
3.342044741E0,1.059434265E-1,-6.649895310E-1,9.889249802E0
3.344042814E0,8.678980917E-2,-4.590881765E-1,9.702502251E0
3.346040887E0,9.636662155E-2,-4.207809567E-1,9.434351921E0
3.348038960E0,1.203086376E-1,-5.309142470E-1,1.002811337E1
3.350037033E0,6.763619930E-2,-5.021837950E-1,9.961075783E0
3.352035106E0,4.848258570E-2,-3.250128925E-1,9.530119896E0
3.354033179E0,3.411737457E-2,-3.872621357E-1,9.688137054E0
3.356031252E0,9.157821536E-2,-4.112041295E-1,9.841365814E0
3.358029325E0,4.848258570E-2,-2.436100245E-1,9.855731010E0
3.360027398E0,4.369417951E-2,-6.643909961E-2,9.242815971E0
3.362025471E0,1.017535757E-2,-1.478419602E-1,9.324218750E0
3.364023491E0,3.411737457E-2,-3.489548862E-1,9.764751434E0
3.366021252E0,-1.855506375E-2,-3.968389332E-1,1.011909389E1
3.368019012E0,5.805939063E-2,-3.728969097E-1,9.913191795E0
3.370016773E0,7.242459804E-2,-4.016273320E-1,9.922768593E0
3.372014533E0,3.890577704E-2,-3.681085110E-1,9.865307808E0
3.374012294E0,-5.686229095E-2,-2.819172442E-1,9.482235909E0
3.376010054E0,-1.047463268E-1,-3.681085110E-1,9.769539833E0
3.378007814E0,-1.095347255E-1,-1.622071713E-1,9.563638687E0
3.380005575E0,-5.686229095E-2,6.284779310E-2,8.797493935E0
3.382003335E0,-4.189853091E-3,-2.388216257E-1,9.415198326E0
3.384001096E0,2.932897024E-2,-4.255693555E-1,1.065539455E1
3.385998908E0,6.284779310E-2,-2.771288455E-1,1.027711105E1
3.387996773E0,7.721300423E-2,3.890577704E-2,9.458293915E0
3.389994637E0,5.805939063E-2,7.242459804E-2,9.343372345E0
3.391992502E0,1.975216344E-2,-1.382651478E-1,1.002811337E1
3.393990366E0,1.442506462E-1,-2.962824702E-1,1.014303589E1
3.395988283E0,3.890577704E-2,-2.627636492E-1,9.865307808E0
3.397986200E0,2.932897024E-2,1.975216344E-2,9.295488358E0
3.399984116E0,7.242459804E-2,1.203086376E-1,9.214085579E0
3.401982033E0,1.155202314E-1,-6.165069342E-2,9.601945877E0
3.403980002E0,1.634042710E-1,-1.286883354E-1,1.007599831E1
3.405978023E0,1.203086376E-1,-4.728548229E-2,9.965864182E0
3.407976096E0,1.155202314E-1,1.298854351E-1,9.520543098E0
3.409974169E0,1.346738487E-1,1.250970364E-1,9.266757965E0
3.411972241E0,1.298854351E-1,-2.813187055E-2,9.913191795E0
3.413970314E0,1.490390599E-1,-1.047463268E-1,1.028668785E1
3.415968387E0,1.059434265E-1,3.890577704E-2,9.874884605E0
3.417966460E0,1.346738487E-1,1.250970364E-1,9.501389503E0
3.419964533E0,3.890577704E-2,4.369417951E-2,9.688137054E0
3.421962606E0,5.805939063E-2,-4.728548229E-2,9.961075783E0
3.423960627E0,1.394622475E-1,5.805939063E-2,9.697713852E0
3.425958544E0,1.107318252E-1,3.890577704E-2,9.453505516E0
3.427956408E0,5.805939063E-2,-6.165069342E-2,9.779116631E0
3.429954169E0,6.284779310E-2,-4.728548229E-2,9.798270226E0
3.431951877E0,5.327098817E-2,-4.189853091E-3,9.582792282E0
3.433949585E0,4.848258570E-2,-9.516951442E-2,9.534908295E0
3.435947294E0,7.721300423E-2,-3.298012912E-1,1.000417137E1
3.437945002E0,1.107318252E-1,-3.345896900E-1,9.937133789E0
3.439942710E0,7.721300423E-2,-2.388216257E-1,9.649829865E0
3.441940419E0,1.155202314E-1,-2.244564146E-1,9.616311073E0
3.443938127E0,1.538274586E-1,-5.207388848E-2,9.549273491E0
3.445935835E0,9.636662155E-2,-4.249707982E-2,9.204508781E0
3.447933544E0,1.011550203E-1,-2.292448133E-1,9.783905029E0
3.449931252E0,1.777694821E-1,-3.058592677E-1,9.917980194E0
3.451929012E0,1.107318252E-1,-2.867056429E-1,9.917980194E0
3.453926825E0,6.763619930E-2,-3.202244639E-1,9.985017776E0
3.455924689E0,1.107318252E-1,-3.770867735E-2,9.817423820E0
3.457922606E0,1.298854351E-1,1.825578809E-1,8.898050308E0
3.459920575E0,1.634042710E-1,-6.643909961E-2,9.592369080E0
3.461918596E0,1.490390599E-1,-1.669955701E-1,1.028668785E1
3.463916669E0,1.634042710E-1,-5.686229095E-2,9.985017776E0
3.465914794E0,1.203086376E-1,5.327098817E-2,9.506177902E0
3.467912971E0,1.203086376E-1,-5.207388848E-2,9.654618263E0
3.469911148E0,6.763619930E-2,-1.334767491E-1,9.941922188E0
3.471909325E0,6.284779310E-2,-7.601590455E-2,9.573215485E0
3.473907502E0,1.496376097E-2,-1.526303589E-1,9.865307808E0
3.475905679E0,1.496376097E-2,-1.191115379E-1,9.812635422E0
3.477903648E0,3.411737457E-2,-9.516951442E-2,9.606734276E0
3.479901564E0,4.848258570E-2,-1.047463268E-1,9.774328232E0
3.481899481E0,1.496376097E-2,-1.143231317E-1,9.755174637E0
3.483897398E0,-4.189853091E-3,-1.191115379E-1,9.396044731E0
3.485895314E0,2.454056777E-2,-2.388216257E-1,9.755174637E0
3.487893231E0,3.411737457E-2,-3.058592677E-1,9.764751434E0
3.489891148E0,4.369417951E-2,-2.244564146E-1,9.611522675E0
3.491889064E0,5.327098817E-2,-1.047463268E-1,9.625887871E0
3.493886981E0,2.932897024E-2,-7.122749835E-2,9.573215485E0
3.495884898E0,2.454056777E-2,-1.334767491E-1,1.002811337E1
3.497882814E0,-4.249707982E-2,-1.047463268E-1,1.010951710E1
3.499880731E0,-6.165069342E-2,4.848258570E-2,9.621099472E0
3.501878648E0,-7.601590455E-2,5.805939063E-2,9.597157478E0
3.503876616E0,-1.382651478E-1,-6.643909961E-2,9.721655846E0
3.505874585E0,-1.478419602E-1,-1.334767491E-1,9.994594574E0
3.507872554E0,-1.191115379E-1,4.848258570E-2,9.812635422E0
3.509870523E0,-1.047463268E-1,2.448071241E-1,9.343372345E0
3.511868491E0,-9.038111567E-2,1.586158574E-1,9.558850288E0
3.513866460E0,-7.601590455E-2,3.411737457E-2,9.913191795E0
3.515864429E0,-6.165069342E-2,-5.207388848E-2,9.946710587E0
3.517862398E0,-6.165069342E-2,-1.430535465E-1,9.961075783E0
3.519860366E0,-5.207388848E-2,-8.080431074E-2,9.716867447E0
3.521858335E0,-7.601590455E-2,4.848258570E-2,9.510966301E0
3.523856304E0,-9.995792061E-2,2.454056777E-2,9.381679535E0
3.525854273E0,-3.292027488E-2,-9.038111567E-2,9.712079048E0
3.527852294E0,-9.995792061E-2,1.496376097E-2,9.807847023E0
3.529850366E0,-8.559270948E-2,1.873462796E-1,9.554061890E0
3.531848491E0,-6.643909961E-2,1.298854351E-1,9.558850288E0
3.533846669E0,-1.382651478E-1,-7.601590455E-2,1.016218948E1
3.535844898E0,-7.601590455E-2,2.932897024E-2,1.008078671E1
3.537843127E0,-6.165069342E-2,1.681926697E-1,9.487024307E0
3.539841356E0,-1.855506375E-2,1.777694821E-1,9.376891136E0
3.541839585E0,-4.189853091E-3,4.848258570E-2,9.913191795E0
3.543837814E0,3.411737457E-2,-4.728548229E-2,9.975440979E0
3.545836044E0,2.932897024E-2,9.157821536E-2,9.898826599E0
3.547834273E0,6.284779310E-2,1.969230920E-1,9.702502251E0
3.549832502E0,9.636662155E-2,2.304419130E-1,9.487024307E0
3.551830731E0,1.442506462E-1,2.112883031E-1,9.649829865E0
3.553828908E0,1.394622475E-1,2.112883031E-1,9.606734276E0
3.555827085E0,1.155202314E-1,2.495955229E-1,9.568427086E0
3.557825002E0,1.729810685E-1,1.729810685E-1,9.573215485E0
3.559822919E0,1.634042710E-1,1.203086376E-1,9.774328232E0
3.561820835E0,1.490390599E-1,4.848258570E-2,9.898826599E0
3.563818752E0,1.107318252E-1,6.763619930E-2,9.769539833E0
3.565816669E0,3.411737457E-2,1.634042710E-1,9.673771858E0
3.567814585E0,1.017535757E-2,1.586158574E-1,9.463082314E0
3.569812502E0,3.411737457E-2,2.932897024E-2,9.922768593E0
3.571810419E0,-1.376665942E-2,5.327098817E-2,9.712079048E0
3.573808335E0,3.411737457E-2,4.848258570E-2,9.683348656E0
3.575806252E0,-1.855506375E-2,-7.601590455E-2,9.970652580E0
3.577804169E0,-2.813187055E-2,-1.095347255E-1,1.015740108E1
3.579802085E0,-2.813187055E-2,7.242459804E-2,9.783905029E0
3.581799898E0,-1.376665942E-2,2.160767019E-1,9.443928719E0
3.583797606E0,-3.770867735E-2,9.636662155E-2,9.635464668E0
3.585795158E0,-2.334346622E-2,-8.978256024E-3,9.793481827E0
3.587792710E0,-5.207388848E-2,-2.813187055E-2,9.932345390E0
3.589790262E0,-7.601590455E-2,3.411737457E-2,9.774328232E0
3.591787814E0,-6.643909961E-2,8.678980917E-2,9.601945877E0
3.593785366E0,-5.207388848E-2,-4.189853091E-3,9.908403397E0
3.595782971E0,-2.334346622E-2,6.284779310E-2,9.913191795E0
3.597780627E0,-6.165069342E-2,1.155202314E-1,9.530119896E0
3.599778335E0,-8.559270948E-2,5.386953708E-3,9.625887871E0
3.601776096E0,-1.855506375E-2,-7.601590455E-2,9.898826599E0
3.603773908E0,-1.376665942E-2,5.327098817E-2,9.659406662E0
3.605771773E0,-2.334346622E-2,3.890577704E-2,9.678560257E0
3.607769689E0,-6.643909961E-2,1.203086376E-1,9.530119896E0
3.609767658E0,-9.516951442E-2,1.634042710E-1,9.534908295E0
3.611765679E0,-9.038111567E-2,1.298854351E-1,9.736021042E0
3.613763752E0,-1.855506375E-2,1.298854351E-1,9.774328232E0
3.615761825E0,4.848258570E-2,5.327098817E-2,9.917980194E0
3.617759898E0,-3.770867735E-2,1.059434265E-1,9.870096207E0
3.619757971E0,1.017535757E-2,2.400187254E-1,9.515754700E0
3.621756044E0,5.985504249E-4,2.926911712E-1,9.309853554E0
3.623754116E0,-1.855506375E-2,2.687491477E-1,9.496601105E0
3.625752189E0,1.975216344E-2,7.721300423E-2,9.879673004E0
3.627750106E0,-1.376665942E-2,-7.601590455E-2,1.021007347E1
3.629747919E0,2.454056777E-2,2.454056777E-2,1.004726696E1
3.631745731E0,5.985504249E-4,1.394622475E-1,9.664195061E0
3.633743544E0,-2.334346622E-2,1.155202314E-1,9.597157478E0
3.635741356E0,1.017535757E-2,1.250970364E-1,9.697713852E0
3.637739169E0,1.017535757E-2,1.011550203E-1,9.606734276E0
3.639736981E0,-4.189853091E-3,1.442506462E-1,9.630676270E0
3.641734794E0,-3.292027488E-2,9.157821536E-2,9.616311073E0
3.643732606E0,5.985504249E-4,6.284779310E-2,9.817423820E0
3.645730419E0,1.017535757E-2,1.298854351E-1,9.779116631E0
3.647728231E0,3.890577704E-2,1.011550203E-1,9.941922188E0
3.649726096E0,1.496376097E-2,1.729810685E-1,9.625887871E0
3.651724012E0,-2.334346622E-2,2.304419130E-1,9.549273491E0
3.653721981E0,1.496376097E-2,1.825578809E-1,9.606734276E0
3.655720002E0,2.454056777E-2,6.284779310E-2,9.807847023E0
3.657718075E0,2.932897024E-2,-4.189853091E-3,9.903614998E0
3.659716200E0,3.411737457E-2,1.250970364E-1,9.774328232E0
3.661714377E0,5.386953708E-3,2.352303118E-1,9.439140320E0
3.663712606E0,3.890577704E-2,1.346738487E-1,9.635464668E0
3.665710887E0,4.369417951E-2,-2.813187055E-2,9.807847023E0
3.667709221E0,3.890577704E-2,-1.047463268E-1,9.908403397E0
3.669707606E0,1.496376097E-2,-6.165069342E-2,9.716867447E0
3.671706044E0,-2.334346622E-2,-5.686229095E-2,9.664195061E0
3.673704481E0,-5.686229095E-2,-8.559270948E-2,9.554061890E0
3.675702919E0,-1.376665942E-2,-1.047463268E-1,9.783905029E0
3.677701356E0,-4.189853091E-3,-1.238999367E-1,9.659406662E0
3.679699794E0,5.386953708E-3,-1.286883354E-1,9.692925453E0
3.681698231E0,5.386953708E-3,-1.813607812E-1,9.587580681E0
3.683696460E0,5.386953708E-3,-2.723404467E-1,9.831789017E0
3.685694429E0,5.386953708E-3,-2.723404467E-1,9.793481827E0
3.687692398E0,-4.189853091E-3,-2.292448133E-1,9.616311073E0
3.689690366E0,3.890577704E-2,-2.819172442E-1,9.793481827E0
3.691688335E0,2.932897024E-2,-2.771288455E-1,9.668983459E0
3.693686304E0,5.386953708E-3,-2.962824702E-1,9.568427086E0
3.695684325E0,-1.855506375E-2,-3.489548862E-1,9.788693428E0
3.697682398E0,-2.813187055E-2,-4.447229803E-1,9.889249802E0
3.699680523E0,-2.334346622E-2,-4.255693555E-1,9.903614998E0
3.701678648E0,-4.189853091E-3,-3.010708690E-1,9.759963036E0
3.703676773E0,-6.165069342E-2,-2.675520480E-1,9.668983459E0
3.705674898E0,-7.601590455E-2,-2.819172442E-1,9.779116631E0
3.707673023E0,-8.080431074E-2,-3.010708690E-1,9.716867447E0
3.709671148E0,-3.292027488E-2,-2.914940715E-1,9.846154213E0
3.711669273E0,-8.978256024E-3,-2.196680009E-1,9.721655846E0
3.713667294E0,-1.855506375E-2,-9.038111567E-2,9.601945877E0
3.715665314E0,1.017535757E-2,-8.978256024E-3,9.645041466E0
3.717663335E0,3.890577704E-2,-1.855506375E-2,9.740809441E0
3.719661356E0,5.386953708E-3,-5.686229095E-2,9.922768593E0
3.721659377E0,1.496376097E-2,5.805939063E-2,9.927556992E0
3.723657398E0,4.848258570E-2,2.208651006E-1,9.712079048E0
3.725655419E0,1.011550203E-1,3.549404144E-1,9.635464668E0
3.727653491E0,7.721300423E-2,4.459200799E-1,9.558850288E0
3.729651564E0,4.369417951E-2,4.794389009E-1,9.592369080E0
3.731649637E0,3.890577704E-2,4.315548539E-1,9.850942612E0
3.733647710E0,7.242459804E-2,5.033808947E-1,9.827000618E0
3.735645783E0,4.848258570E-2,5.991489887E-1,9.812635422E0
3.737643856E0,9.636662155E-2,6.278793812E-1,9.721655846E0
3.739641929E0,8.200141042E-2,6.278793812E-1,9.745597839E0
3.741640002E0,8.200141042E-2,6.566098332E-1,9.630676270E0
3.743638075E0,5.805939063E-2,6.230909824E-1,9.606734276E0
3.745636148E0,1.011550203E-1,5.177460909E-1,9.812635422E0
3.747634221E0,1.298854351E-1,3.836708367E-1,9.898826599E0
3.749632294E0,2.017114908E-1,4.459200799E-1,9.817423820E0
3.751630366E0,1.921346933E-1,5.560533404E-1,9.611522675E0
3.753628439E0,2.064998895E-1,5.656301379E-1,9.525331497E0
3.755626512E0,2.591723204E-1,4.650736749E-1,9.606734276E0
3.757624585E0,2.591723204E-1,3.309983909E-1,9.812635422E0
3.759622658E0,3.166331649E-1,2.783259451E-1,9.846154213E0
3.761620731E0,2.879027426E-1,2.831143439E-1,9.889249802E0
3.763618804E0,2.974795699E-1,3.309983909E-1,9.731232643E0
3.765616877E0,2.064998895E-1,3.453635871E-1,9.520543098E0
3.767614950E0,2.160767019E-1,2.831143439E-1,9.721655846E0
3.769613023E0,2.160767019E-1,2.304419130E-1,9.697713852E0
3.771611096E0,2.543839216E-1,2.543839216E-1,9.668983459E0
3.773609169E0,2.543839216E-1,2.064998895E-1,9.640253067E0
3.775607294E0,2.112883031E-1,2.352303118E-1,9.702502251E0
3.777605419E0,2.064998895E-1,2.400187254E-1,9.678560257E0
3.779603596E0,2.017114908E-1,1.729810685E-1,9.621099472E0
3.781601825E0,2.112883031E-1,1.059434265E-1,9.759963036E0
3.783600054E0,2.400187254E-1,3.890577704E-2,9.889249802E0
3.785598283E0,2.974795699E-1,9.157821536E-2,9.817423820E0
3.787596512E0,2.926911712E-1,1.107318252E-1,9.793481827E0
3.789594741E0,2.591723204E-1,9.636662155E-2,9.774328232E0
3.791592971E0,2.256535143E-1,1.729810685E-1,9.783905029E0
3.793591200E0,2.160767019E-1,1.969230920E-1,9.621099472E0
3.795589429E0,1.921346933E-1,3.166331649E-1,9.477447510E0
3.797587658E0,1.777694821E-1,2.831143439E-1,9.434351921E0
3.799585835E0,1.969230920E-1,1.538274586E-1,9.764751434E0
3.801584012E0,2.112883031E-1,1.107318252E-1,1.000895977E1
3.803582085E0,2.160767019E-1,1.921346933E-1,9.932345390E0
3.805580054E0,2.017114908E-1,2.926911712E-1,9.712079048E0
3.807578023E0,2.256535143E-1,3.501519859E-1,9.597157478E0
3.809575991E0,2.448071241E-1,3.214215636E-1,9.692925453E0
3.811573960E0,2.591723204E-1,2.831143439E-1,9.702502251E0
3.813571929E0,2.352303118E-1,2.352303118E-1,9.874884605E0
3.815569898E0,1.681926697E-1,2.591723204E-1,9.649829865E0
3.817567919E0,1.777694821E-1,1.586158574E-1,9.759963036E0
3.819565991E0,1.538274586E-1,1.586158574E-1,9.678560257E0
3.821564116E0,1.250970364E-1,2.448071241E-1,9.664195061E0
3.823562294E0,8.678980917E-2,2.879027426E-1,9.668983459E0
3.825560523E0,8.200141042E-2,2.256535143E-1,9.894038200E0
3.827558804E0,1.059434265E-1,2.831143439E-1,9.913191795E0
3.829557137E0,8.200141042E-2,4.363432527E-1,9.731232643E0
3.831555523E0,1.107318252E-1,5.608417392E-1,9.664195061E0
3.833553908E0,9.157821536E-2,6.230909824E-1,9.539696693E0
3.835552294E0,3.890577704E-2,6.183025837E-1,9.578003883E0
3.837550679E0,9.157821536E-2,5.752069354E-1,9.913191795E0
3.839549064E0,1.250970364E-1,5.512649417E-1,9.985017776E0
3.841547085E0,1.681926697E-1,6.326677799E-1,9.822212219E0
3.843545106E0,1.011550203E-1,7.954735160E-1,9.530119896E0
3.845542919E0,1.107318252E-1,8.242039084E-1,9.419986725E0
3.847540731E0,9.636662155E-2,7.523778677E-1,9.510966301E0
3.849538544E0,1.442506462E-1,6.709750295E-1,9.803058624E0
3.851536356E0,1.203086376E-1,6.326677799E-1,9.937133789E0
3.853534169E0,1.777694821E-1,7.284358740E-1,9.817423820E0
3.855531981E0,1.729810685E-1,8.672995567E-1,9.563638687E0
3.857529794E0,1.394622475E-1,9.008184075E-1,9.539696693E0
3.859527606E0,1.442506462E-1,7.140706778E-1,9.927556992E0
3.861525419E0,1.346738487E-1,6.709750295E-1,1.006642151E1
3.863523231E0,9.636662155E-2,8.433575630E-1,9.884461403E0
3.865521044E0,1.107318252E-1,1.015740037E0,9.673771858E0
3.867518856E0,8.678980917E-2,1.010951638E0,9.314641953E0
3.869516669E0,3.411737457E-2,8.768763542E-1,9.640253067E0
3.871514481E0,-4.249707982E-2,7.619546652E-1,9.707290649E0
3.873512346E0,-7.601590455E-2,7.092822790E-1,9.712079048E0
3.875510262E0,-9.038111567E-2,6.949170232E-1,9.750386238E0
3.877508231E0,-7.601590455E-2,7.380126715E-1,9.534908295E0
3.879506252E0,-9.038111567E-2,6.566098332E-1,9.759963036E0
3.881504325E0,-9.516951442E-2,5.895721912E-1,9.831789017E0
3.883502450E0,-8.080431074E-2,5.752069354E-1,9.788693428E0
3.885500627E0,-1.765723825E-1,5.464765429E-1,9.846154213E0
3.887498856E0,-2.244564146E-1,5.512649417E-1,9.803058624E0
3.889497137E0,-2.914940715E-1,5.464765429E-1,9.712079048E0
3.891495419E0,-3.345896900E-1,5.560533404E-1,9.884461403E0
3.893493700E0,-4.064157307E-1,5.321113467E-1,9.668983459E0
3.895491981E0,-4.542997777E-1,5.608417392E-1,9.779116631E0
3.897490262E0,-4.542997777E-1,7.715315223E-1,9.597157478E0
3.899488544E0,-5.021837950E-1,7.236474752E-1,9.218873978E0
3.901486825E0,-4.351461530E-1,6.374561787E-1,9.846154213E0
3.903485106E0,-3.633201122E-1,6.374561787E-1,9.927556992E0
3.905483387E0,-3.441664875E-1,7.044938207E-1,9.841365814E0
3.907481669E0,-3.681085110E-1,7.858967185E-1,9.649829865E0
3.909479950E0,-3.058592677E-1,7.619546652E-1,9.654618263E0
3.911478231E0,-3.010708690E-1,6.278793812E-1,9.894038200E0
3.913476512E0,-3.010708690E-1,5.512649417E-1,9.975440979E0
3.915474794E0,-2.675520480E-1,5.991489887E-1,9.712079048E0
3.917473075E0,-2.627636492E-1,7.092822790E-1,9.635464668E0
3.919471356E0,-2.436100245E-1,7.763199210E-1,9.515754700E0
3.921469637E0,-1.238999367E-1,7.044938207E-1,9.956287384E0
3.923467762E0,-7.601590455E-2,6.326677799E-1,1.011430550E1
3.925465835E0,6.284779310E-2,7.380126715E-1,1.016218948E1
3.927463596E0,6.284779310E-2,1.001374841E0,9.381679535E0
3.929461356E0,1.059434265E-1,9.630676508E-1,9.089587212E0
3.931459116E0,1.490390599E-1,5.752069354E-1,9.716867447E0
3.933456877E0,2.543839216E-1,3.884592354E-1,1.015261269E1
3.935454637E0,2.639607489E-1,6.326677799E-1,9.697713852E0
3.937452398E0,2.495955229E-1,8.098387122E-1,9.309853554E0
3.939450158E0,3.309983909E-1,8.337807655E-1,9.372102737E0
3.941447919E0,3.501519859E-1,7.571662664E-1,9.530119896E0
3.943445679E0,3.309983909E-1,6.326677799E-1,9.783905029E0
3.945443439E0,3.597288132E-1,3.693056107E-1,1.001853657E1
3.947441200E0,4.171896577E-1,2.112883031E-1,1.042076302E1
3.949438960E0,4.076128304E-1,2.879027426E-1,1.003769016E1
3.951436773E0,3.980360329E-1,4.985924959E-1,9.530119896E0
3.953434637E0,3.693056107E-1,6.087257862E-1,9.194931984E0
3.955432554E0,2.879027426E-1,4.794389009E-1,9.003395081E0
3.957430523E0,2.160767019E-1,1.442506462E-1,9.525331497E0
3.959428491E0,2.448071241E-1,6.763619930E-2,1.003290176E1
3.961426460E0,1.681926697E-1,7.721300423E-2,9.592369080E0
3.963424429E0,1.490390599E-1,-3.770867735E-2,9.961075783E0
3.965422398E0,1.538274586E-1,-2.005143911E-1,1.013824749E1
3.967420366E0,1.250970364E-1,-1.430535465E-1,1.007120991E1
3.969418335E0,6.763619930E-2,5.805939063E-2,9.530119896E0
3.971416304E0,-1.376665942E-2,3.411737457E-2,9.419986725E0
3.973414273E0,-6.165069342E-2,-1.047463268E-1,9.807847023E0
3.975412241E0,-7.601590455E-2,-7.601590455E-2,9.635464668E0
3.977410210E0,-1.334767491E-1,5.985504249E-4,9.702502251E0
3.979408179E0,-1.430535465E-1,5.327098817E-2,9.688137054E0
3.981406148E0,-9.995792061E-2,7.242459804E-2,9.793481827E0
3.983404116E0,-1.143231317E-1,1.155202314E-1,9.970652580E0
3.985402085E0,-1.238999367E-1,2.112883031E-1,9.630676270E0
3.987400054E0,-1.191115379E-1,1.107318252E-1,9.755174637E0
3.989398023E0,-1.526303589E-1,1.298854351E-1,1.014303589E1
3.991395991E0,-6.643909961E-2,4.459200799E-1,9.860519409E0
3.993394012E0,-3.770867735E-2,6.566098332E-1,9.333795547E0
3.995392085E0,-6.643909961E-2,6.757634282E-1,9.467870712E0
3.997390210E0,-7.601590455E-2,6.949170232E-1,9.563638687E0
3.999388387E0,-2.334346622E-2,6.901286244E-1,9.673771858E0
4.001386616E0,5.386953708E-3,7.332242727E-1,9.616311073E0
4.003384898E0,-1.855506375E-2,6.230909824E-1,9.740809441E0
4.005383231E0,1.975216344E-2,6.135141850E-1,9.783905029E0
4.007381616E0,1.975216344E-2,5.225345492E-1,9.822212219E0
4.009380054E0,-4.189853091E-3,4.602852762E-1,9.970652580E0
4.011378491E0,-7.601590455E-2,5.704185367E-1,9.578003883E0
4.013376929E0,-5.686229095E-2,7.332242727E-1,9.185355186E0
4.015375366E0,-6.643909961E-2,4.842272997E-1,1.003290176E1
4.017373804E0,-1.334767491E-1,3.501519859E-1,1.028189945E1
4.019372189E0,-2.053027898E-1,4.698620737E-1,9.831789017E0
4.021370210E0,-1.717839688E-1,5.895721912E-1,9.788693428E0
4.023368231E0,-1.861491799E-1,6.183025837E-1,9.573215485E0
4.025366252E0,-2.531868219E-1,4.698620737E-1,9.659406662E0
4.027364273E0,-2.244564146E-1,3.166331649E-1,9.980229378E0
4.029362294E0,-2.340332121E-1,2.687491477E-1,9.774328232E0
4.031360314E0,-2.340332121E-1,2.017114908E-1,9.664195061E0
4.033358335E0,-2.196680009E-1,2.304419130E-1,9.640253067E0
4.035356356E0,-2.053027898E-1,3.405751884E-1,9.285911560E0
4.037354377E0,-2.388216257E-1,2.400187254E-1,9.448717117E0
4.039352450E0,-9.516951442E-2,-1.191115379E-1,1.004247856E1
4.041350575E0,-8.080431074E-2,-1.191115379E-1,1.029147625E1
4.043348752E0,-9.516951442E-2,1.298854351E-1,9.554061890E0
4.045346981E0,-9.038111567E-2,1.873462796E-1,9.314641953E0
4.047345262E0,-1.286883354E-1,6.284779310E-2,9.803058624E0
4.049343596E0,-1.095347255E-1,1.011550203E-1,9.817423820E0
4.051341981E0,-9.516951442E-2,1.155202314E-1,9.917980194E0
4.053340366E0,-2.813187055E-2,1.442506462E-1,9.994594574E0
4.055338752E0,-4.728548229E-2,2.926911712E-1,9.831789017E0
4.057337137E0,-4.189853091E-3,4.411316514E-1,9.587580681E0
4.059335523E0,5.985504249E-4,4.698620737E-1,9.534908295E0
4.061333908E0,3.890577704E-2,4.267664552E-1,9.640253067E0
4.063332241E0,-4.189853091E-3,3.022679687E-1,9.817423820E0
4.065330262E0,-4.189853091E-3,3.884592354E-1,9.827000618E0
4.067328283E0,5.386953708E-3,4.650736749E-1,9.520543098E0
4.069326304E0,1.496376097E-2,4.028244317E-1,9.606734276E0
4.071324325E0,3.890577704E-2,2.352303118E-1,1.008078671E1
4.073322346E0,6.763619930E-2,3.118447661E-1,9.884461403E0
4.075320366E0,6.763619930E-2,4.794389009E-1,9.372102737E0
4.077318387E0,1.107318252E-1,3.453635871E-1,9.381679535E0
4.079316408E0,1.298854351E-1,1.203086376E-1,1.005205631E1
4.081314429E0,2.112883031E-1,5.386953708E-3,9.874884605E0
4.083312450E0,2.687491477E-1,1.490390599E-1,9.846154213E0
4.085310471E0,2.256535143E-1,1.873462796E-1,9.578003883E0
4.087308544E0,2.448071241E-1,1.490390599E-1,9.712079048E0
4.089306669E0,3.166331649E-1,2.256535143E-1,9.673771858E0
