"Time (s)","Acceleration x (m/s^2)","Acceleration y (m/s^2)","Acceleration z (m/s^2)"
1.698699000E-2,5.805939063E-2,4.554968774E-1,9.707290649E0
1.898464600E-2,6.284779310E-2,4.650736749E-1,9.745597839E0
2.098214600E-2,5.327098817E-2,4.650736749E-1,9.755174637E0
2.297964600E-2,4.369417951E-2,4.650736749E-1,9.736021042E0
2.497714600E-2,3.890577704E-2,4.746504724E-1,9.745597839E0
2.697464600E-2,4.848258570E-2,4.698620737E-1,9.755174637E0
2.897214600E-2,6.284779310E-2,4.794389009E-1,9.793481827E0
3.096964600E-2,7.242459804E-2,4.890156984E-1,9.793481827E0
3.296719800E-2,7.242459804E-2,4.890156984E-1,9.764751434E0
3.496480200E-2,7.242459804E-2,4.842272997E-1,9.803058624E0
3.696245800E-2,7.242459804E-2,4.938040972E-1,9.793481827E0
3.896016700E-2,7.242459804E-2,4.985924959E-1,9.769539833E0
4.095787500E-2,7.242459804E-2,5.081692934E-1,9.783905029E0
4.295558300E-2,9.636662155E-2,4.890156984E-1,9.759963036E0
4.495329200E-2,1.059434265E-1,4.938040972E-1,9.769539833E0
4.695105200E-2,1.442506462E-1,4.985924959E-1,9.745597839E0
4.894886500E-2,1.538274586E-1,4.842272997E-1,9.779116631E0
5.094672900E-2,1.681926697E-1,4.842272997E-1,9.750386238E0
5.294459400E-2,1.729810685E-1,4.842272997E-1,9.740809441E0
5.494245800E-2,1.777694821E-1,4.938040972E-1,9.745597839E0
5.694032300E-2,1.825578809E-1,4.985924959E-1,9.745597839E0
5.893824000E-2,1.921346933E-1,5.033808947E-1,9.759963036E0
6.093615600E-2,1.873462796E-1,5.081692934E-1,9.783905029E0
6.293407300E-2,1.969230920E-1,5.129576921E-1,9.774328232E0
6.493199000E-2,1.873462796E-1,5.368997455E-1,9.764751434E0
6.692990600E-2,1.921346933E-1,5.656301379E-1,9.793481827E0
6.892782300E-2,2.064998895E-1,5.799953341E-1,9.807847023E0
7.092574000E-2,1.969230920E-1,5.943605900E-1,9.822212219E0
7.292329200E-2,1.921346933E-1,6.039373875E-1,9.822212219E0
7.492084400E-2,1.825578809E-1,5.847837925E-1,9.836577415E0
7.691839600E-2,1.729810685E-1,5.799953341E-1,9.841365814E0
7.891594800E-2,1.442506462E-1,5.321113467E-1,9.831789017E0
8.091350000E-2,1.394622475E-1,5.321113467E-1,9.817423820E0
8.291105200E-2,1.203086376E-1,5.033808947E-1,9.793481827E0
8.490860400E-2,1.011550203E-1,4.985924959E-1,9.788693428E0
8.690615600E-2,1.155202314E-1,4.650736749E-1,9.755174637E0
8.890370800E-2,1.203086376E-1,4.507084787E-1,9.726444244E0
9.090131300E-2,1.155202314E-1,4.219780564E-1,9.668983459E0
9.289896900E-2,1.107318252E-1,4.028244317E-1,9.606734276E0
9.489667700E-2,1.155202314E-1,3.788824081E-1,9.582792282E0
9.689443800E-2,1.107318252E-1,3.693056107E-1,9.554061890E0
9.889225000E-2,1.346738487E-1,3.836708367E-1,9.534908295E0
1.008901150E-1,1.298854351E-1,3.788824081E-1,9.530119896E0
1.028880310E-1,1.538274586E-1,3.788824081E-1,9.525331497E0
1.048860000E-1,1.538274586E-1,3.740940094E-1,9.525331497E0
1.068840210E-1,1.634042710E-1,3.884592354E-1,9.482235909E0
1.088820940E-1,1.777694821E-1,4.028244317E-1,9.506177902E0
1.108801670E-1,2.064998895E-1,4.267664552E-1,9.487024307E0
1.128782400E-1,2.160767019E-1,4.171896577E-1,9.491812706E0
1.148763130E-1,2.256535143E-1,4.363432527E-1,9.453505516E0
1.168743860E-1,2.495955229E-1,4.028244317E-1,9.463082314E0
1.188723540E-1,2.735375464E-1,3.884592354E-1,9.487024307E0
1.208701670E-1,2.639607489E-1,3.884592354E-1,9.515754700E0
1.228679270E-1,2.687491477E-1,3.693056107E-1,9.549273491E0
1.248656880E-1,2.974795699E-1,3.549404144E-1,9.601945877E0
1.268634480E-1,2.735375464E-1,3.693056107E-1,9.625887871E0
1.288612080E-1,2.974795699E-1,4.028244317E-1,9.635464668E0
1.308589690E-1,2.783259451E-1,4.315548539E-1,9.635464668E0
1.328567290E-1,2.687491477E-1,4.890156984E-1,9.645041466E0
1.348544900E-1,2.448071241E-1,5.847837925E-1,9.635464668E0
1.368522500E-1,2.400187254E-1,8.050503135E-1,9.611522675E0
1.388500110E-1,2.735375464E-1,9.487023950E-1,9.625887871E0
1.408477710E-1,2.783259451E-1,1.010951638E0,9.640253067E0
1.428455310E-1,3.214215636E-1,1.034893632E0,9.678560257E0
1.448432920E-1,3.262099922E-1,1.020528436E0,9.716867447E0
1.468410520E-1,3.453635871E-1,9.678560495E-1,9.798270226E0
1.488388130E-1,3.788824081E-1,9.439139962E-1,9.850942612E0
1.508365730E-1,3.549404144E-1,8.960300088E-1,9.922768593E0
1.528343330E-1,3.357867897E-1,9.056068063E-1,9.975440979E0
1.548320940E-1,3.262099922E-1,8.816647530E-1,9.975440979E0
1.568298540E-1,2.591723204E-1,8.529343605E-1,9.927556992E0
1.588276150E-1,2.064998895E-1,8.481459618E-1,9.922768593E0
1.608253750E-1,1.777694821E-1,8.625111580E-1,9.898826599E0
1.628231360E-1,1.394622475E-1,8.672995567E-1,9.850942612E0
1.648208960E-1,1.155202314E-1,9.343371987E-1,9.817423820E0
1.668186560E-1,8.678980917E-2,9.199720025E-1,9.846154213E0
1.688164170E-1,9.157821536E-2,9.391255975E-1,9.827000618E0
1.708141770E-1,8.678980917E-2,9.295488000E-1,9.827000618E0
1.728119380E-1,9.636662155E-2,9.391255975E-1,9.779116631E0
1.748096980E-1,9.157821536E-2,9.199720025E-1,9.764751434E0
1.768074580E-1,8.678980917E-2,8.672995567E-1,9.812635422E0
1.788052190E-1,1.107318252E-1,8.768763542E-1,9.783905029E0
1.808029790E-1,1.203086376E-1,8.672995567E-1,9.764751434E0
1.828007400E-1,1.250970364E-1,8.816647530E-1,9.736021042E0
1.847985000E-1,1.681926697E-1,8.577227592E-1,9.779116631E0
1.867962610E-1,1.442506462E-1,8.529343605E-1,9.783905029E0
1.887940210E-1,1.155202314E-1,8.098387122E-1,9.783905029E0
1.907918330E-1,1.203086376E-1,8.050503135E-1,9.783905029E0
1.927896980E-1,1.681926697E-1,8.385691643E-1,9.731232643E0
1.947876150E-1,1.203086376E-1,8.385691643E-1,9.740809441E0
1.967855830E-1,1.203086376E-1,8.146271110E-1,9.779116631E0
1.987836040E-1,6.763619930E-2,7.523778677E-1,9.831789017E0
2.007816250E-1,2.454056777E-2,7.140706778E-1,9.894038200E0
2.027796460E-1,1.975216344E-2,7.044938207E-1,9.884461403E0
2.047776670E-1,-8.978256024E-3,6.949170232E-1,9.860519409E0
2.067756880E-1,-4.728548229E-2,6.901286244E-1,9.855731010E0
2.087733960E-1,-5.686229095E-2,6.326677799E-1,9.941922188E0
2.107710000E-1,-8.559270948E-2,6.422445774E-1,9.874884605E0
2.127686040E-1,-9.995792061E-2,7.236474752E-1,9.755174637E0
2.147662080E-1,-1.238999367E-1,7.044938207E-1,9.779116631E0
2.167638130E-1,-1.191115379E-1,6.374561787E-1,9.860519409E0
2.187614170E-1,-1.286883354E-1,6.278793812E-1,9.846154213E0
2.207590210E-1,-1.334767491E-1,6.661866307E-1,9.740809441E0
2.227566250E-1,-1.286883354E-1,6.805518270E-1,9.659406662E0
2.247542290E-1,-1.095347255E-1,6.326677799E-1,9.726444244E0
2.267518860E-1,-9.995792061E-2,6.757634282E-1,9.707290649E0
2.287495940E-1,-9.516951442E-2,6.661866307E-1,9.707290649E0
2.307473540E-1,-9.516951442E-2,6.613982320E-1,9.764751434E0
2.327451670E-1,-9.038111567E-2,6.326677799E-1,9.803058624E0
2.347430310E-1,-7.122749835E-2,6.757634282E-1,9.769539833E0
2.367409480E-1,-5.686229095E-2,7.140706778E-1,9.712079048E0
2.387389170E-1,-5.686229095E-2,7.428010702E-1,9.697713852E0
2.407369380E-1,-6.165069342E-2,6.566098332E-1,9.759963036E0
2.427350110E-1,-9.038111567E-2,5.991489887E-1,9.793481827E0
2.447331360E-1,-8.080431074E-2,5.512649417E-1,9.779116631E0
2.467312610E-1,-9.995792061E-2,5.273229480E-1,9.764751434E0
2.487293860E-1,-7.122749835E-2,5.273229480E-1,9.692925453E0
2.507275110E-1,-8.080431074E-2,5.273229480E-1,9.712079048E0
2.527256360E-1,-7.122749835E-2,5.608417392E-1,9.750386238E0
2.547237610E-1,-6.165069342E-2,6.278793812E-1,9.736021042E0
2.567217810E-1,-5.207388848E-2,6.757634282E-1,9.779116631E0
2.587195940E-1,-5.207388848E-2,7.092822790E-1,9.817423820E0
2.607174060E-1,-1.855506375E-2,7.571662664E-1,9.798270226E0
2.627152190E-1,-3.292027488E-2,7.523778677E-1,9.788693428E0
2.647130310E-1,5.386953708E-3,7.475894690E-1,9.908403397E0
2.667108440E-1,-8.978256024E-3,8.098387122E-1,9.941922188E0
2.687086560E-1,1.496376097E-2,8.337807655E-1,9.822212219E0
2.707064690E-1,-1.376665942E-2,8.385691643E-1,9.836577415E0
2.727042810E-1,-3.292027488E-2,8.098387122E-1,9.803058624E0
2.747021460E-1,-5.207388848E-2,7.811083198E-1,9.769539833E0
2.767000110E-1,-7.122749835E-2,7.380126715E-1,9.764751434E0
2.786978750E-1,-8.080431074E-2,7.188590765E-1,9.697713852E0
2.806957400E-1,-3.292027488E-2,7.763199210E-1,9.606734276E0
2.826936040E-1,-4.249707982E-2,7.619546652E-1,9.539696693E0
2.846914690E-1,-6.165069342E-2,6.853402257E-1,9.668983459E0
2.866893330E-1,-6.643909961E-2,6.230909824E-1,9.645041466E0
2.886871980E-1,-4.249707982E-2,5.752069354E-1,9.616311073E0
2.906850630E-1,-4.189853091E-3,6.135141850E-1,9.482235909E0
2.926826670E-1,2.454056777E-2,5.704185367E-1,9.467870712E0
2.946802710E-1,5.386953708E-3,5.321113467E-1,9.496601105E0
2.966778750E-1,4.369417951E-2,5.560533404E-1,9.443928719E0
2.986754790E-1,1.155202314E-1,6.039373875E-1,9.391256332E0
3.006730830E-1,1.250970364E-1,6.613982320E-1,9.463082314E0
3.026706880E-1,1.394622475E-1,6.566098332E-1,9.410409927E0
3.046682920E-1,1.346738487E-1,5.321113467E-1,9.539696693E0
3.066658960E-1,1.394622475E-1,4.985924959E-1,9.573215485E0
3.086635000E-1,1.346738487E-1,5.368997455E-1,9.482235909E0
3.106611040E-1,1.059434265E-1,5.273229480E-1,9.434351921E0
3.126587080E-1,1.298854351E-1,5.656301379E-1,9.487024307E0
3.146563650E-1,1.442506462E-1,6.613982320E-1,9.496601105E0
3.166540730E-1,1.586158574E-1,6.805518270E-1,9.515754700E0
3.186518330E-1,1.538274586E-1,6.183025837E-1,9.635464668E0
3.206496460E-1,1.442506462E-1,6.805518270E-1,9.621099472E0
3.226475110E-1,9.636662155E-2,7.858967185E-1,9.515754700E0
3.246454270E-1,9.157821536E-2,7.332242727E-1,9.534908295E0
3.266433440E-1,5.327098817E-2,6.997054219E-1,9.688137054E0
3.286412610E-1,5.386953708E-3,6.997054219E-1,9.702502251E0
3.306391770E-1,2.454056777E-2,7.571662664E-1,9.621099472E0
3.326370940E-1,5.386953708E-3,7.763199210E-1,9.621099472E0
3.346350110E-1,-4.728548229E-2,8.050503135E-1,9.779116631E0
3.366329270E-1,-6.643909961E-2,7.763199210E-1,9.884461403E0
3.386308440E-1,-1.286883354E-1,8.242039084E-1,9.807847023E0
3.406287610E-1,-1.238999367E-1,8.720879555E-1,9.692925453E0
3.426266770E-1,-1.957259923E-1,9.056068063E-1,9.745597839E0
3.446245940E-1,-2.148796022E-1,9.343371987E-1,9.803058624E0
3.466225110E-1,-2.196680009E-1,9.774328470E-1,9.793481827E0
3.486204270E-1,-2.436100245E-1,9.534908533E-1,9.793481827E0
3.506182920E-1,-2.723404467E-1,8.577227592E-1,9.860519409E0
3.526159480E-1,-2.388216257E-1,8.577227592E-1,9.850942612E0
3.546134480E-1,-2.148796022E-1,9.439139962E-1,9.649829865E0
3.566109480E-1,-2.053027898E-1,9.103952050E-1,9.807847023E0
3.586084480E-1,-1.909375787E-1,8.481459618E-1,9.913191795E0
3.606059480E-1,-2.100912035E-1,7.954735160E-1,9.774328232E0
3.626034480E-1,-2.388216257E-1,8.242039084E-1,9.640253067E0
3.646009480E-1,-2.723404467E-1,7.667431235E-1,9.625887871E0
3.665985000E-1,-2.388216257E-1,7.236474752E-1,9.640253067E0
3.685961040E-1,-1.909375787E-1,7.428010702E-1,9.582792282E0
3.705937610E-1,-1.861491799E-1,6.518214345E-1,9.611522675E0
3.725914690E-1,-2.340332121E-1,5.225345492E-1,9.726444244E0
3.745892290E-1,-2.053027898E-1,5.033808947E-1,9.779116631E0
3.765870420E-1,-1.669955701E-1,4.890156984E-1,9.740809441E0
3.785849060E-1,-1.334767491E-1,5.368997455E-1,9.803058624E0
3.805828230E-1,-1.669955701E-1,5.799953341E-1,9.807847023E0
3.825807920E-1,-1.909375787E-1,5.321113467E-1,9.889249802E0
3.845788130E-1,-2.579752207E-1,6.087257862E-1,9.917980194E0
3.865768860E-1,-2.388216257E-1,6.997054219E-1,9.807847023E0
3.885750110E-1,-2.723404467E-1,7.906851172E-1,9.779116631E0
3.905731880E-1,-2.723404467E-1,8.385691643E-1,9.731232643E0
3.925714170E-1,-2.914940715E-1,8.816647530E-1,9.774328232E0
3.945696980E-1,-2.819172442E-1,9.534908533E-1,9.716867447E0
3.965679790E-1,-2.627636492E-1,9.391255975E-1,9.678560257E0
3.985662610E-1,-2.292448133E-1,8.385691643E-1,9.831789017E0
4.005645420E-1,-2.436100245E-1,7.428010702E-1,1.000895977E1
4.025626150E-1,-2.388216257E-1,7.571662664E-1,9.951498985E0
4.045604270E-1,-2.244564146E-1,7.667431235E-1,9.807847023E0
4.065582400E-1,-2.292448133E-1,7.523778677E-1,9.697713852E0
4.085560520E-1,-2.292448133E-1,6.470330358E-1,9.692925453E0
4.105538650E-1,-2.148796022E-1,6.422445774E-1,9.721655846E0
4.125516770E-1,-1.334767491E-1,6.135141850E-1,9.726444244E0
4.145494900E-1,-8.559270948E-2,6.135141850E-1,9.745597839E0
4.165473020E-1,-6.165069342E-2,6.374561787E-1,9.783905029E0
4.185451150E-1,-4.249707982E-2,6.422445774E-1,9.745597839E0
4.205429270E-1,-5.207388848E-2,5.847837925E-1,9.745597839E0
4.225407400E-1,5.985504249E-4,5.416881442E-1,9.803058624E0
4.245385520E-1,-2.334346622E-2,5.177460909E-1,9.874884605E0
4.265364170E-1,-2.813187055E-2,5.368997455E-1,9.841365814E0
4.285343330E-1,-6.643909961E-2,4.794389009E-1,9.788693428E0
4.305322500E-1,-8.080431074E-2,4.890156984E-1,9.712079048E0
4.325301670E-1,-7.122749835E-2,4.554968774E-1,9.688137054E0
4.345280830E-1,-4.728548229E-2,4.650736749E-1,9.707290649E0
4.365260000E-1,2.932897024E-2,4.171896577E-1,9.726444244E0
4.385239170E-1,4.848258570E-2,3.118447661E-1,9.788693428E0
4.405218330E-1,1.975216344E-2,3.022679687E-1,9.855731010E0
4.425197500E-1,3.890577704E-2,3.262099922E-1,9.745597839E0
4.445176670E-1,5.327098817E-2,3.405751884E-1,9.578003883E0
4.465155830E-1,3.890577704E-2,2.974795699E-1,9.539696693E0
4.485135000E-1,-8.978256024E-3,2.735375464E-1,9.688137054E0
4.505114170E-1,-2.813187055E-2,2.543839216E-1,9.793481827E0
4.525093330E-1,-3.292027488E-2,2.495955229E-1,9.793481827E0
4.545072500E-1,-5.207388848E-2,2.831143439E-1,9.870096207E0
4.565051670E-1,-2.334346622E-2,3.645172119E-1,9.769539833E0
4.585030830E-1,1.496376097E-2,3.645172119E-1,9.645041466E0
4.605010000E-1,-3.292027488E-2,3.549404144E-1,9.712079048E0
4.624989170E-1,1.017535757E-2,3.597288132E-1,9.798270226E0
4.644968330E-1,2.454056777E-2,3.788824081E-1,9.831789017E0
4.664947500E-1,5.386953708E-3,3.501519859E-1,9.740809441E0
4.684926670E-1,-4.249707982E-2,2.783259451E-1,9.568427086E0
4.704905830E-1,2.926911712E-1,8.678980917E-2,8.653841972E0
4.724885520E-1,2.543839216E-1,2.304419130E-1,9.147047997E0
4.744865730E-1,1.729810685E-1,2.831143439E-1,9.520543098E0
4.764846460E-1,1.538274586E-1,2.208651006E-1,9.879673004E0
4.784827710E-1,1.059434265E-1,1.777694821E-1,1.007120991E1
4.804809480E-1,4.369417951E-2,1.634042710E-1,1.019570827E1
4.824791770E-1,-4.728548229E-2,2.591723204E-1,1.014782429E1
4.844774060E-1,-8.080431074E-2,4.028244317E-1,9.956287384E0
4.864756360E-1,-6.643909961E-2,5.177460909E-1,9.817423820E0
4.884738650E-1,-7.601590455E-2,5.608417392E-1,9.736021042E0
4.904720940E-1,-5.207388848E-2,5.799953341E-1,9.783905029E0
4.924700630E-1,-1.376665942E-2,6.039373875E-1,9.817423820E0
4.944680310E-1,-4.189853091E-3,6.566098332E-1,9.745597839E0
4.964660000E-1,1.496376097E-2,6.183025837E-1,9.769539833E0
4.984639690E-1,3.890577704E-2,6.278793812E-1,9.688137054E0
5.004619380E-1,2.735375464E-1,6.566098332E-1,8.735244751E0
5.024599060E-1,2.400187254E-1,6.709750295E-1,8.802282333E0
5.044578750E-1,1.586158574E-1,5.368997455E-1,9.635464668E0
5.064558440E-1,1.298854351E-1,4.028244317E-1,9.970652580E0
5.084538130E-1,8.678980917E-2,4.363432527E-1,1.009994030E1
5.104517810E-1,5.985504249E-4,4.076128304E-1,1.008557510E1
5.124498020E-1,-9.038111567E-2,3.309983909E-1,1.026274586E1
5.144478750E-1,6.284779310E-2,3.309983909E-1,9.946710587E0
5.164460000E-1,9.636662155E-2,4.315548539E-1,9.831789017E0
5.184441770E-1,9.157821536E-2,4.028244317E-1,9.822212219E0
5.204424060E-1,1.873462796E-1,3.309983909E-1,9.769539833E0
5.224406880E-1,2.495955229E-1,3.980360329E-1,9.745597839E0
5.244390210E-1,3.118447661E-1,4.698620737E-1,9.649829865E0
5.264374060E-1,3.549404144E-1,5.368997455E-1,9.467870712E0
5.284358440E-1,3.501519859E-1,4.650736749E-1,9.386467934E0
5.304343330E-1,3.884592354E-1,4.219780564E-1,9.611522675E0
5.324328230E-1,3.501519859E-1,3.357867897E-1,9.683348656E0
5.344313130E-1,3.309983909E-1,2.783259451E-1,9.673771858E0
5.364298020E-1,3.166331649E-1,3.118447661E-1,9.616311073E0
5.384276670E-1,2.591723204E-1,3.597288132E-1,9.530119896E0
5.404254270E-1,2.160767019E-1,3.645172119E-1,9.525331497E0
5.424231880E-1,1.586158574E-1,2.495955229E-1,9.673771858E0
5.444209480E-1,1.873462796E-1,1.346738487E-1,9.865307808E0
5.464187080E-1,2.064998895E-1,9.157821536E-2,1.004726696E1
5.484164690E-1,2.400187254E-1,1.538274586E-1,9.917980194E0
5.504142290E-1,2.591723204E-1,2.448071241E-1,9.635464668E0
5.524119900E-1,2.783259451E-1,2.974795699E-1,9.635464668E0
5.544098020E-1,2.831143439E-1,3.118447661E-1,9.692925453E0
5.564076670E-1,3.166331649E-1,4.076128304E-1,9.678560257E0
5.584055830E-1,3.309983909E-1,5.416881442E-1,9.654618263E0
5.604035520E-1,2.974795699E-1,5.129576921E-1,9.774328232E0
5.624015730E-1,2.831143439E-1,5.464765429E-1,9.889249802E0
5.643996460E-1,2.591723204E-1,6.278793812E-1,9.884461403E0
5.663977710E-1,2.687491477E-1,7.475894690E-1,9.712079048E0
5.683959480E-1,3.118447661E-1,8.194155097E-1,9.640253067E0
5.703941250E-1,3.693056107E-1,8.672995567E-1,9.692925453E0
5.723923020E-1,4.076128304E-1,8.816647530E-1,9.740809441E0
5.743904790E-1,4.076128304E-1,8.337807655E-1,9.827000618E0
5.763886560E-1,4.315548539E-1,8.385691643E-1,9.841365814E0
5.783868330E-1,5.321113467E-1,8.289923668E-1,9.774328232E0
5.803850110E-1,5.273229480E-1,8.481459618E-1,9.788693428E0
5.823831880E-1,5.321113467E-1,8.816647530E-1,9.635464668E0
5.843812080E-1,5.560533404E-1,9.103952050E-1,9.645041466E0
5.863788650E-1,5.225345492E-1,8.577227592E-1,9.745597839E0
5.883765210E-1,5.368997455E-1,8.385691643E-1,9.846154213E0
5.903741770E-1,5.177460909E-1,8.625111580E-1,9.769539833E0
5.923718330E-1,5.177460909E-1,8.960300088E-1,9.563638687E0
5.943694900E-1,4.459200799E-1,8.194155097E-1,9.568427086E0
5.963671460E-1,4.315548539E-1,7.188590765E-1,9.850942612E0
5.983648540E-1,4.698620737E-1,6.805518270E-1,9.994594574E0
6.003626150E-1,4.842272997E-1,7.858967185E-1,9.769539833E0
6.023604270E-1,5.225345492E-1,8.577227592E-1,9.515754700E0
6.043582920E-1,4.842272997E-1,7.284358740E-1,9.606734276E0
6.063562080E-1,5.368997455E-1,6.997054219E-1,9.769539833E0
6.083541770E-1,5.943605900E-1,7.571662664E-1,9.745597839E0
6.103521460E-1,6.805518270E-1,5.895721912E-1,9.898826599E0
6.123501150E-1,5.799953341E-1,2.495955229E-1,1.011909389E1
6.143480830E-1,5.225345492E-1,3.890577704E-2,1.035851383E1
6.163460520E-1,5.512649417E-1,5.327098817E-2,1.019570827E1
6.183440210E-1,3.884592354E-1,2.304419130E-1,9.774328232E0
6.203419900E-1,2.017114908E-1,3.357867897E-1,9.530119896E0
6.223399580E-1,1.777694821E-1,3.549404144E-1,9.544485092E0
6.243379270E-1,1.538274586E-1,5.943605900E-1,9.491812706E0
6.263358960E-1,1.586158574E-1,7.954735160E-1,9.534908295E0
6.283338130E-1,2.879027426E-1,9.439139962E-1,9.276334763E0
6.303317290E-1,2.831143439E-1,9.487023950E-1,9.223662376E0
6.323296460E-1,2.400187254E-1,9.678560495E-1,9.429563522E0
6.343275630E-1,3.309983909E-1,9.822212458E-1,9.396044731E0
6.363254790E-1,2.400187254E-1,9.343371987E-1,9.300276756E0
6.383233960E-1,1.107318252E-1,7.571662664E-1,9.496601105E0
6.403213130E-1,3.890577704E-2,5.129576921E-1,9.884461403E0
6.423192290E-1,-5.207388848E-2,4.411316514E-1,9.913191795E0
6.443171460E-1,-1.478419602E-1,5.656301379E-1,9.673771858E0
6.463150630E-1,-3.441664875E-1,5.799953341E-1,9.419986725E0
6.483129790E-1,-5.596446395E-1,3.836708367E-1,9.874884605E0
6.503108960E-1,-7.176619768E-1,2.735375464E-1,1.029626465E1
6.523088130E-1,-6.218938828E-1,4.746504724E-1,1.022922707E1
6.543067290E-1,-6.266822815E-1,6.326677799E-1,9.807847023E0
6.563046460E-1,-6.841431260E-1,6.805518270E-1,9.712079048E0
6.583025630E-1,-7.032967210E-1,8.242039084E-1,9.812635422E0
6.603004790E-1,-5.740098357E-1,1.006163239E0,9.649829865E0
6.622983960E-1,-5.021837950E-1,1.063624144E0,9.453505516E0
6.642963130E-1,-3.872621357E-1,1.087566137E0,9.467870712E0
6.662942290E-1,-2.819172442E-1,9.774328470E-1,9.759963036E0
6.682921460E-1,-1.765723825E-1,9.295488000E-1,9.822212219E0
6.702900630E-1,-1.238999367E-1,8.720879555E-1,9.659406662E0
6.722879790E-1,-4.189853091E-3,8.002619147E-1,9.668983459E0
6.742858960E-1,-8.978256024E-3,6.997054219E-1,9.755174637E0
6.762838650E-1,-7.122749835E-2,4.985924959E-1,9.841365814E0
6.782818860E-1,-8.978256024E-3,5.416881442E-1,9.759963036E0
6.802799060E-1,8.678980917E-2,6.135141850E-1,9.640253067E0
6.822779270E-1,5.327098817E-2,5.512649417E-1,9.712079048E0
6.842759480E-1,-1.855506375E-2,5.225345492E-1,9.879673004E0
6.862739690E-1,-7.122749835E-2,6.230909824E-1,9.745597839E0
6.882719900E-1,-6.165069342E-2,6.470330358E-1,9.477447510E0
6.902700110E-1,-1.047463268E-1,5.799953341E-1,9.558850288E0
6.922680830E-1,-1.095347255E-1,5.416881442E-1,9.798270226E0
6.942662080E-1,-1.669955701E-1,4.938040972E-1,9.836577415E0
6.962643330E-1,-1.574187577E-1,4.554968774E-1,9.759963036E0
6.982624580E-1,-5.686229095E-2,5.129576921E-1,9.204508781E0
7.002605830E-1,1.975216344E-2,5.991489887E-1,9.123106003E0
7.022587080E-1,-5.686229095E-2,5.321113467E-1,9.726444244E0
7.042568330E-1,-7.601590455E-2,4.746504724E-1,9.927556992E0
7.062549580E-1,-9.995792061E-2,3.693056107E-1,1.004247856E1
7.082530830E-1,-2.053027898E-1,-2.483984232E-1,1.064581776E1
7.102512080E-1,-1.957259923E-1,-2.627636492E-1,1.066018295E1
7.122493330E-1,6.284779310E-2,5.799953341E-1,9.683348656E0
7.142473020E-1,1.155202314E-1,8.816647530E-1,8.682572365E0
7.162452710E-1,-8.978256024E-3,7.044938207E-1,8.759186745E0
7.182431360E-1,-2.334346622E-2,5.512649417E-1,9.400833130E0
7.202410000E-1,2.454056777E-2,4.985924959E-1,9.841365814E0
7.222388650E-1,1.298854351E-1,4.315548539E-1,9.937133789E0
7.242367290E-1,1.490390599E-1,2.160767019E-1,9.865307808E0
7.262345940E-1,1.825578809E-1,3.070563674E-1,9.889249802E0
7.282324580E-1,1.921346933E-1,5.081692934E-1,9.827000618E0
7.302303230E-1,2.160767019E-1,5.704185367E-1,9.467870712E0
7.322281880E-1,1.442506462E-1,3.884592354E-1,9.510966301E0
7.342260520E-1,9.157821536E-2,2.208651006E-1,9.879673004E0
7.362239170E-1,9.157821536E-2,2.112883031E-1,9.961075783E0
7.382218330E-1,1.298854351E-1,2.879027426E-1,9.721655846E0
7.402198020E-1,1.634042710E-1,2.160767019E-1,9.472659111E0
7.422178230E-1,8.678980917E-2,1.298854351E-1,9.544485092E0
7.442158960E-1,2.454056777E-2,3.118447661E-1,9.836577415E0
7.462140210E-1,6.284779310E-2,4.507084787E-1,9.937133789E0
7.482121980E-1,5.985504249E-4,5.752069354E-1,9.874884605E0
7.502104270E-1,8.200141042E-2,8.146271110E-1,9.932345390E0
7.522086560E-1,1.969230920E-1,6.661866307E-1,9.592369080E0
7.542068860E-1,6.763619930E-2,6.613982320E-1,9.903614998E0
7.562051150E-1,1.634042710E-1,1.010951638E0,9.879673004E0
7.582033440E-1,1.825578809E-1,1.188122630E0,9.630676270E0
7.602012080E-1,2.160767019E-1,1.293467522E0,9.487024307E0
7.621990210E-1,2.352303118E-1,1.178545833E0,9.616311073E0
7.641968330E-1,2.400187254E-1,1.063624144E0,9.994594574E0
7.661946460E-1,1.873462796E-1,1.202487826E0,9.736021042E0
7.681924580E-1,2.400187254E-1,1.212064624E0,9.415198326E0
7.701902710E-1,1.873462796E-1,1.125873327E0,9.645041466E0
7.721880830E-1,1.155202314E-1,1.030105233E0,9.956287384E0
7.741858960E-1,-2.334346622E-2,8.242039084E-1,1.010951710E1
7.761837610E-1,-2.867056429E-1,6.230909824E-1,9.827000618E0
7.781816770E-1,-5.165489912E-1,5.033808947E-1,9.697713852E0
7.801796460E-1,-7.799112201E-1,3.501519859E-1,9.831789017E0
7.821776670E-1,-9.283517003E-1,1.873462796E-1,9.783905029E0
7.841757400E-1,-9.906009436E-1,-3.441664875E-1,9.989806175E0
7.861738130E-1,-9.762357473E-1,-1.134253025E0,1.025795746E1
7.881718860E-1,-1.134253025E0,-1.397615194E0,1.007120991E1
7.901699580E-1,-1.239597917E0,-1.502960086E0,9.496601105E0
7.921680310E-1,-1.656189084E0,-9.522937536E-1,7.619546890E0
7.941661040E-1,-1.670554280E0,-6.985083222E-1,8.586804390E0
7.961641770E-1,-1.608304977E0,-8.277952671E-1,1.023880386E1
7.981622500E-1,-1.569997787E0,-9.475052953E-1,1.081820011E1
8.001603230E-1,-1.646612167E0,-7.224503756E-1,1.031062984E1
8.021583960E-1,-1.297058821E0,-5.596446395E-1,9.712079048E0
8.041564690E-1,-1.009754539E0,-5.213374496E-1,9.515754700E0
8.061545420E-1,-1.057638645E0,-1.669955701E-1,9.482235909E0
8.081526150E-1,-9.283517003E-1,9.636662155E-2,9.846154213E0
8.101506880E-1,-7.703344226E-1,3.788824081E-1,9.932345390E0
8.121487610E-1,-7.799112201E-1,7.428010702E-1,9.673771858E0
8.141468330E-1,-6.458359361E-1,8.577227592E-1,9.755174637E0
8.161449060E-1,-3.633201122E-1,8.289923668E-1,9.865307808E0
8.181429790E-1,-2.005143911E-1,8.960300088E-1,9.740809441E0
8.201410520E-1,-1.526303589E-1,1.044470549E0,9.597157478E0
8.221391250E-1,-7.122749835E-2,1.077989340E0,9.487024307E0
8.241371980E-1,-1.855506375E-2,1.006163239E0,9.640253067E0
8.261352710E-1,1.975216344E-2,9.726444483E-1,9.721655846E0
8.281333440E-1,9.157821536E-2,8.433575630E-1,9.683348656E0
8.301314170E-1,1.634042710E-1,6.566098332E-1,9.951498985E0
8.321294900E-1,1.634042710E-1,6.805518270E-1,1.006163311E1
8.341275630E-1,2.256535143E-1,6.422445774E-1,9.822212219E0
8.361256360E-1,2.639607489E-1,6.135141850E-1,9.601945877E0
8.381237080E-1,2.495955229E-1,5.129576921E-1,9.769539833E0
8.401217810E-1,2.352303118E-1,3.501519859E-1,9.774328232E0
8.421198540E-1,2.783259451E-1,3.262099922E-1,9.568427086E0
8.441177710E-1,3.836708367E-1,2.448071241E-1,9.649829865E0
8.461156360E-1,5.464765429E-1,1.250970364E-1,9.534908295E0
8.481133440E-1,5.752069354E-1,3.890577704E-2,9.525331497E0
8.501110520E-1,6.278793812E-1,-8.559270948E-2,9.678560257E0
8.521087610E-1,6.518214345E-1,-2.244564146E-1,9.812635422E0
8.541064690E-1,7.811083198E-1,-2.962824702E-1,9.807847023E0
8.561041770E-1,7.811083198E-1,-3.154360652E-1,9.736021042E0
8.581018860E-1,8.625111580E-1,-3.824737072E-1,9.683348656E0
8.600995940E-1,8.912416101E-1,-4.495113790E-1,9.827000618E0
8.620973020E-1,9.439139962E-1,-4.638765752E-1,9.736021042E0
8.640950110E-1,9.726444483E-1,-5.740098357E-1,9.822212219E0
8.660927190E-1,9.487023950E-1,-6.458359361E-1,9.587580681E0
8.680904270E-1,8.385691643E-1,-5.979518890E-1,9.405621529E0
8.700881880E-1,7.763199210E-1,-6.841431260E-1,9.630676270E0
8.720859480E-1,6.230909824E-1,-8.708908558E-1,9.831789017E0
8.740837080E-1,4.698620737E-1,-1.014542937E0,9.946710587E0
8.760814690E-1,3.166331649E-1,-1.162983418E0,9.798270226E0
8.780792810E-1,1.586158574E-1,-1.301847219E0,9.721655846E0
8.800771460E-1,2.454056777E-2,-1.364096403E0,9.812635422E0
8.820750630E-1,-6.165069342E-2,-1.455076098E0,9.831789017E0
8.840730310E-1,-1.717839688E-1,-1.541267395E0,9.759963036E0
8.860710520E-1,-2.292448133E-1,-1.517325282E0,9.606734276E0
8.880690730E-1,-2.579752207E-1,-1.455076098E0,9.544485092E0
8.900670940E-1,-2.819172442E-1,-1.603516579E0,9.779116631E0
8.920651150E-1,-2.914940715E-1,-1.665765882E0,1.004726696E1
8.940631360E-1,-2.627636492E-1,-1.479018092E0,9.884461403E0
8.960611560E-1,-2.483984232E-1,-1.263539910E0,9.501389503E0
8.980591770E-1,-2.483984232E-1,-1.182137132E0,9.300276756E0
9.000571980E-1,-2.005143911E-1,-1.139041424E0,9.515754700E0
9.020552190E-1,-1.095347255E-1,-1.091157436E0,9.697713852E0
9.040532400E-1,-2.813187055E-2,-1.028908134E0,9.841365814E0
9.060512610E-1,8.678980917E-2,-8.948329091E-1,9.831789017E0
9.080492290E-1,1.825578809E-1,-6.745663285E-1,9.731232643E0
9.100469900E-1,2.879027426E-1,-4.207809567E-1,9.640253067E0
9.120447500E-1,3.597288132E-1,-3.106476665E-1,9.506177902E0
9.140425110E-1,4.028244317E-1,-1.526303589E-1,9.506177902E0
9.160402710E-1,4.459200799E-1,5.386953708E-3,9.707290649E0
9.180380310E-1,5.273229480E-1,-3.770867735E-2,9.592369080E0
9.200357920E-1,5.847837925E-1,-3.250128925E-1,9.640253067E0
9.220335520E-1,5.656301379E-1,-2.292448133E-1,9.611522675E0
9.240313650E-1,5.464765429E-1,-6.643909961E-2,9.510966301E0
9.260292290E-1,5.799953341E-1,-6.165069342E-2,9.860519409E0
9.280271460E-1,6.518214345E-1,-4.249707982E-2,1.000895977E1
9.300251150E-1,6.566098332E-1,6.763619930E-2,1.007120991E1
9.320231360E-1,6.135141850E-1,1.921346933E-1,9.827000618E0
9.340212080E-1,5.704185367E-1,3.070563674E-1,9.726444244E0
9.360193330E-1,5.033808947E-1,2.591723204E-1,9.707290649E0
9.380175110E-1,5.081692934E-1,3.740940094E-1,9.898826599E0
9.400157400E-1,5.416881442E-1,5.991489887E-1,9.736021042E0
9.420139690E-1,4.938040972E-1,8.050503135E-1,9.362525940E0
9.440121980E-1,3.980360329E-1,6.470330358E-1,9.578003883E0
9.460104270E-1,1.873462796E-1,2.208651006E-1,9.702502251E0
9.480086560E-1,1.777694821E-1,1.681926697E-1,9.946710587E0
9.500068860E-1,1.298854351E-1,2.017114908E-1,1.017176628E1
9.520048020E-1,1.250970364E-1,3.597288132E-1,9.736021042E0
9.540027190E-1,3.890577704E-2,4.171896577E-1,9.568427086E0
9.560006360E-1,1.586158574E-1,3.836708367E-1,9.640253067E0
9.579985520E-1,1.442506462E-1,3.262099922E-1,9.961075783E0
9.599963650E-1,1.107318252E-1,3.357867897E-1,1.000417137E1
9.619941250E-1,-5.686229095E-2,1.298854351E-1,1.032978344E1
9.639918860E-1,5.386953708E-3,3.501519859E-1,9.549273491E0
9.659896460E-1,-4.249707982E-2,4.794389009E-1,9.281123161E0
9.679874060E-1,-4.249707982E-2,3.405751884E-1,9.491812706E0
9.699851670E-1,-1.095347255E-1,2.639607489E-1,9.582792282E0
9.719829270E-1,-1.765723825E-1,2.448071241E-1,9.759963036E0
9.739806880E-1,-2.483984232E-1,2.017114908E-1,9.803058624E0
9.759784480E-1,-1.526303589E-1,2.256535143E-1,9.587580681E0
9.779762080E-1,-9.038111567E-2,1.490390599E-1,9.889249802E0
9.799739690E-1,-5.686229095E-2,8.678980917E-2,9.879673004E0
9.819717290E-1,-1.430535465E-1,-4.189853091E-3,1.000417137E1
9.839694900E-1,-2.723404467E-1,4.848258570E-2,9.946710587E0
9.859672500E-1,-3.824737072E-1,1.250970364E-1,9.927556992E0
9.879650110E-1,-5.165489912E-1,2.160767019E-1,9.544485092E0
9.899627710E-1,-6.506243348E-1,2.831143439E-1,9.391256332E0
9.919605310E-1,-6.841431260E-1,3.836708367E-1,9.352949142E0
9.939582920E-1,-7.128735781E-1,4.124012291E-1,9.621099472E0
9.959560520E-1,-7.320271730E-1,4.076128304E-1,9.894038200E0
9.979538130E-1,-7.176619768E-1,4.411316514E-1,9.927556992E0
9.999515730E-1,-6.745663285E-1,5.177460909E-1,9.946710587E0
1.001949177E0,-6.362590790E-1,5.895721912E-1,9.625887871E0
1.003946625E0,-6.266822815E-1,6.518214345E-1,9.568427086E0
1.005944073E0,-5.979518890E-1,6.183025837E-1,9.621099472E0
1.007941521E0,-5.021837950E-1,5.656301379E-1,9.783905029E0
1.009938969E0,-4.064157307E-1,4.985924959E-1,1.003769016E1
1.011936417E0,-3.010708690E-1,5.656301379E-1,9.903614998E0
1.013933917E0,-2.005143911E-1,7.092822790E-1,9.759963036E0
1.015931469E0,-1.574187577E-1,8.194155097E-1,9.453505516E0
1.017929073E0,-8.080431074E-2,7.858967185E-1,9.453505516E0
1.019926729E0,-1.855506375E-2,6.566098332E-1,9.673771858E0
1.021924438E0,2.454056777E-2,6.087257862E-1,9.827000618E0
1.023922198E0,5.386953708E-3,6.183025837E-1,9.827000618E0
1.025920011E0,3.890577704E-2,6.183025837E-1,9.874884605E0
1.027917875E0,2.932897024E-2,6.566098332E-1,9.759963036E0
1.029915792E0,4.369417951E-2,6.183025837E-1,9.736021042E0
1.031913761E0,8.200141042E-2,6.135141850E-1,9.668983459E0
1.033911781E0,6.284779310E-2,2.017114908E-1,1.031062984E1
1.035909802E0,1.011550203E-1,1.777694821E-1,9.678560257E0
1.037907823E0,2.208651006E-1,3.980360329E-1,9.372102737E0
1.039905844E0,3.070563674E-1,4.076128304E-1,9.458293915E0
1.041903865E0,2.687491477E-1,3.645172119E-1,9.520543098E0
1.043901886E0,2.543839216E-1,3.693056107E-1,9.712079048E0
1.045899594E0,2.591723204E-1,4.028244317E-1,9.817423820E0
1.047897198E0,3.070563674E-1,4.076128304E-1,9.740809441E0
1.049894802E0,2.926911712E-1,3.884592354E-1,9.970652580E0
1.051892406E0,3.549404144E-1,4.076128304E-1,9.908403397E0
1.053890011E0,2.926911712E-1,6.135141850E-1,9.841365814E0
1.055887615E0,3.453635871E-1,7.619546652E-1,9.515754700E0
1.057885219E0,3.501519859E-1,7.763199210E-1,9.592369080E0
1.059882823E0,3.070563674E-1,7.380126715E-1,9.645041466E0
1.061880427E0,2.304419130E-1,7.571662664E-1,9.707290649E0
1.063878031E0,2.352303118E-1,7.858967185E-1,9.716867447E0
1.065875636E0,1.394622475E-1,8.625111580E-1,9.501389503E0
1.067873292E0,1.107318252E-1,8.720879555E-1,9.817423820E0
1.069871000E0,5.805939063E-2,5.033808947E-1,1.056920338E1
1.071868761E0,1.586158574E-1,9.103952050E-1,9.750386238E0
1.073866573E0,1.825578809E-1,1.140238523E0,9.448717117E0
1.075864438E0,1.586158574E-1,1.207276225E0,9.415198326E0
1.077862354E0,1.107318252E-1,1.207276225E0,9.501389503E0
1.079860323E0,5.327098817E-2,1.130661726E0,9.673771858E0
1.081858292E0,1.538274586E-1,1.030105233E0,9.831789017E0
1.083856261E0,2.735375464E-1,1.030105233E0,9.860519409E0
1.085854229E0,3.070563674E-1,1.030105233E0,9.736021042E0
1.087852198E0,3.022679687E-1,8.672995567E-1,9.889249802E0
1.089850167E0,2.831143439E-1,7.380126715E-1,9.970652580E0
1.091848136E0,3.070563674E-1,8.050503135E-1,9.769539833E0
1.093846104E0,3.118447661E-1,8.194155097E-1,9.745597839E0
1.095844073E0,2.783259451E-1,7.619546652E-1,9.621099472E0
1.097841886E0,2.064998895E-1,6.183025837E-1,9.812635422E0
1.099839698E0,2.879027426E-1,5.704185367E-1,9.534908295E0
1.101837511E0,4.411316514E-1,5.416881442E-1,9.448717117E0
1.103835115E0,4.315548539E-1,3.836708367E-1,9.578003883E0
1.105832719E0,3.836708367E-1,2.064998895E-1,1.004247856E1
1.107830323E0,2.879027426E-1,1.059434265E-1,9.908403397E0
1.109827927E0,3.932476342E-1,9.157821536E-2,9.654618263E0
1.111825531E0,4.363432527E-1,6.284779310E-2,9.759963036E0
1.113823188E0,4.363432527E-1,-3.292027488E-2,9.817423820E0
1.115820896E0,2.160767019E-1,-1.478419602E-1,9.927556992E0
1.117818656E0,1.155202314E-1,-2.627636492E-1,9.889249802E0
1.119816469E0,-8.080431074E-2,-1.957259923E-1,9.563638687E0
1.121814333E0,-1.382651478E-1,-3.058592677E-1,9.467870712E0
1.123812250E0,-1.334767491E-1,-4.495113790E-1,9.664195061E0
1.125810219E0,-9.516951442E-2,-6.027402878E-1,9.630676270E0
1.127808240E0,-2.627636492E-1,-6.937199235E-1,9.874884605E0
1.129806261E0,-2.531868219E-1,-7.080851793E-1,9.807847023E0
1.131804281E0,-3.010708690E-1,-6.410474777E-1,9.606734276E0
1.133802302E0,-3.298012912E-1,-6.506243348E-1,9.506177902E0
1.135800323E0,-3.441664875E-1,-7.942764163E-1,9.874884605E0
1.137798344E0,-3.776853085E-1,-8.900445104E-1,1.016218948E1
1.139796261E0,-3.010708690E-1,-8.325836658E-1,9.664195061E0
1.141794073E0,-2.627636492E-1,-7.176619768E-1,9.458293915E0
1.143791781E0,-2.388216257E-1,-7.416039705E-1,9.496601105E0
1.145789438E0,-2.627636492E-1,-8.134300113E-1,9.807847023E0
1.147787094E0,-2.388216257E-1,-8.134300113E-1,9.941922188E0
1.149784698E0,-1.813607812E-1,-7.080851793E-1,9.908403397E0
1.151782250E0,-1.813607812E-1,-4.590881765E-1,9.817423820E0
1.153779542E0,-1.191115379E-1,-1.861491799E-1,9.625887871E0
1.155776833E0,-3.770867735E-2,-6.165069342E-2,9.688137054E0
1.157774125E0,2.454056777E-2,7.721300423E-2,9.482235909E0
1.159771417E0,-4.249707982E-2,1.442506462E-1,9.654618263E0
1.161768761E0,-9.995792061E-2,2.256535143E-1,9.927556992E0
1.163766156E0,-8.978256024E-3,2.974795699E-1,9.850942612E0
1.165763604E0,1.250970364E-1,5.177460909E-1,9.956287384E0
1.167761104E0,1.538274586E-1,6.853402257E-1,9.831789017E0
1.169758656E0,1.777694821E-1,8.289923668E-1,9.649829865E0
1.171756261E0,1.538274586E-1,8.720879555E-1,9.534908295E0
1.173753917E0,1.250970364E-1,8.864531517E-1,9.668983459E0
1.175751625E0,9.157821536E-2,9.343371987E-1,9.668983459E0
1.177749386E0,1.490390599E-1,1.025316834E0,9.592369080E0
1.179747198E0,1.825578809E-1,1.092354536E0,9.578003883E0
1.181745063E0,2.783259451E-1,1.039682031E0,9.827000618E0
1.183742979E0,3.262099922E-1,1.068412542E0,9.678560257E0
1.185740896E0,3.118447661E-1,1.068412542E0,9.578003883E0
1.187738813E0,3.597288132E-1,1.030105233E0,9.578003883E0
1.189736729E0,2.448071241E-1,9.870096445E-1,9.774328232E0
1.191734646E0,2.735375464E-1,9.151836038E-1,9.726444244E0
1.193732563E0,1.729810685E-1,7.523778677E-1,9.779116631E0
1.195730479E0,8.200141042E-2,6.374561787E-1,9.946710587E0
1.197728396E0,6.284779310E-2,5.991489887E-1,9.774328232E0
1.199726313E0,-3.292027488E-2,4.267664552E-1,9.721655846E0
1.201724125E0,-5.686229095E-2,3.836708367E-1,9.946710587E0
1.203721781E0,-1.430535465E-1,3.262099922E-1,9.850942612E0
1.205719438E0,-1.143231317E-1,3.693056107E-1,9.400833130E0
1.207717094E0,-2.340332121E-1,1.825578809E-1,9.534908295E0
1.209714750E0,-3.537433147E-1,-4.189853091E-3,9.779116631E0
1.211712406E0,-2.675520480E-1,-7.122749835E-2,9.879673004E0
1.213710063E0,-2.340332121E-1,-4.249707982E-2,9.788693428E0
1.215707719E0,-9.038111567E-2,6.763619930E-2,9.520543098E0
1.217705427E0,-9.995792061E-2,5.327098817E-2,9.467870712E0
1.219703188E0,-2.196680009E-1,-2.292448133E-1,9.726444244E0
1.221701000E0,-2.148796022E-1,-3.250128925E-1,1.012388229E1
1.223698813E0,-1.813607812E-1,-2.148796022E-1,9.807847023E0
1.225696625E0,-1.574187577E-1,-7.601590455E-2,9.558850288E0
1.227694438E0,-2.005143911E-1,-2.334346622E-2,9.568427086E0
1.229692250E0,-2.196680009E-1,2.932897024E-2,9.477447510E0
1.231690063E0,-2.579752207E-1,-4.728548229E-2,9.726444244E0
1.233687875E0,-1.861491799E-1,-7.601590455E-2,9.970652580E0
1.235685688E0,-1.813607812E-1,1.496376097E-2,9.917980194E0
1.237683500E0,-1.861491799E-1,1.873462796E-1,9.664195061E0
1.239681313E0,-1.909375787E-1,3.262099922E-1,9.769539833E0
1.241679073E0,-1.717839688E-1,3.740940094E-1,9.707290649E0
1.243676781E0,-1.717839688E-1,4.602852762E-1,9.635464668E0
1.245674490E0,-2.005143911E-1,6.757634282E-1,9.654618263E0
1.247672198E0,-1.143231317E-1,7.667431235E-1,9.692925453E0
1.249669906E0,-8.080431074E-2,9.199720025E-1,9.855731010E0
1.251667511E0,-6.643909961E-2,9.917980433E-1,9.630676270E0
1.253665115E0,-2.334346622E-2,8.625111580E-1,9.668983459E0
1.255662719E0,3.890577704E-2,7.715315223E-1,1.022443867E1
1.257660323E0,4.369417951E-2,8.050503135E-1,1.006163311E1
1.259657823E0,1.496376097E-2,1.077989340E0,9.731232643E0
1.261655323E0,1.975216344E-2,1.269525409E0,8.917203903E0
1.263652823E0,-2.813187055E-2,1.303044319E0,8.787917137E0
1.265650323E0,-1.855506375E-2,1.058835745E0,9.482235909E0
1.267647823E0,1.975216344E-2,7.954735160E-1,1.031541824E1
1.269645323E0,1.586158574E-1,6.326677799E-1,1.021007347E1
1.271642823E0,2.495955229E-1,6.805518270E-1,1.003290176E1
1.273640323E0,2.543839216E-1,8.720879555E-1,9.817423820E0
1.275637823E0,3.405751884E-1,8.577227592E-1,9.400833130E0
1.277635375E0,2.352303118E-1,5.273229480E-1,9.827000618E0
1.279632979E0,2.017114908E-1,4.411316514E-1,1.029147625E1
1.281630636E0,2.400187254E-1,5.416881442E-1,9.688137054E0
1.283628344E0,2.352303118E-1,7.428010702E-1,9.391256332E0
1.285626104E0,1.777694821E-1,5.656301379E-1,9.568427086E0
1.287623917E0,6.284779310E-2,2.831143439E-1,1.043033981E1
1.289621781E0,8.200141042E-2,4.554968774E-1,1.005205631E1
1.291619698E0,6.763619930E-2,7.188590765E-1,9.185355186E0
1.293617667E0,3.411737457E-2,7.044938207E-1,9.343372345E0
1.295615688E0,-8.080431074E-2,4.698620737E-1,9.477447510E0
1.297613708E0,-2.196680009E-1,-3.824737072E-1,1.060751057E1
1.299611729E0,-1.909375787E-1,-2.531868219E-1,9.913191795E0
1.301609750E0,-1.334767491E-1,7.242459804E-2,9.525331497E0
1.303607771E0,-1.957259923E-1,1.681926697E-1,9.554061890E0
1.305605792E0,-2.148796022E-1,2.256535143E-1,9.381679535E0
1.307603396E0,-3.345896900E-1,1.059434265E-1,9.688137054E0
1.309601000E0,-2.819172442E-1,6.763619930E-2,9.736021042E0
1.311598604E0,-2.244564146E-1,1.681926697E-1,9.625887871E0
1.313596208E0,-3.250128925E-1,1.681926697E-1,9.597157478E0
1.315593813E0,-3.441664875E-1,1.155202314E-1,9.836577415E0
1.317591417E0,-3.298012912E-1,1.490390599E-1,9.712079048E0
1.319589021E0,-2.723404467E-1,1.059434265E-1,9.736021042E0
1.321586625E0,-2.053027898E-1,1.059434265E-1,1.018613148E1
1.323584229E0,-1.861491799E-1,2.926911712E-1,9.755174637E0
1.325581886E0,-1.717839688E-1,4.315548539E-1,9.281123161E0
1.327579594E0,-1.238999367E-1,4.650736749E-1,9.520543098E0
1.329577354E0,-7.122749835E-2,4.124012291E-1,9.697713852E0
1.331575167E0,4.369417951E-2,4.698620737E-1,1.011909389E1
1.333573031E0,9.636662155E-2,6.230909824E-1,9.654618263E0
1.335570896E0,1.107318252E-1,7.619546652E-1,9.587580681E0
1.337568813E0,1.538274586E-1,7.571662664E-1,9.630676270E0
1.339566781E0,4.369417951E-2,5.943605900E-1,9.774328232E0
1.341564750E0,9.157821536E-2,4.746504724E-1,1.019570827E1
1.343562719E0,1.538274586E-1,6.230909824E-1,9.807847023E0
1.345560688E0,1.634042710E-1,6.805518270E-1,9.343372345E0
1.347558656E0,1.346738487E-1,5.704185367E-1,9.645041466E0
1.349556625E0,1.442506462E-1,4.746504724E-1,9.908403397E0
1.351554594E0,1.346738487E-1,4.602852762E-1,9.702502251E0
1.353552563E0,1.442506462E-1,4.124012291E-1,9.913191795E0
1.355550531E0,9.636662155E-2,3.549404144E-1,1.010472870E1
1.357548500E0,6.284779310E-2,4.219780564E-1,9.884461403E0
1.359546469E0,1.059434265E-1,4.890156984E-1,9.247604370E0
1.361544438E0,7.721300423E-2,4.171896577E-1,9.506177902E0
1.363542406E0,1.107318252E-1,3.836708367E-1,9.582792282E0
1.365540375E0,1.729810685E-1,2.639607489E-1,9.472659111E0
1.367538344E0,1.346738487E-1,-3.010708690E-1,9.985017776E0
1.369536313E0,2.064998895E-1,-1.909375787E-1,1.003769016E1
1.371534281E0,2.112883031E-1,-3.292027488E-2,9.927556992E0
1.373532250E0,1.442506462E-1,1.107318252E-1,9.611522675E0
1.375530219E0,2.064998895E-1,1.777694821E-1,9.783905029E0
1.377528188E0,2.543839216E-1,2.064998895E-1,9.649829865E0
1.379526156E0,1.681926697E-1,2.783259451E-1,9.348160744E0
1.381524125E0,1.394622475E-1,2.400187254E-1,9.621099472E0
1.383521781E0,1.203086376E-1,1.873462796E-1,9.985017776E0
1.385519438E0,8.678980917E-2,3.453635871E-1,9.803058624E0
1.387517094E0,6.284779310E-2,4.411316514E-1,9.419986725E0
1.389514750E0,6.284779310E-2,3.740940094E-1,9.501389503E0
1.391512406E0,4.848258570E-2,2.160767019E-1,1.001853657E1
1.393510115E0,-1.855506375E-2,2.064998895E-1,1.004247856E1
1.395507875E0,-4.728548229E-2,3.645172119E-1,9.630676270E0
1.397505688E0,-6.643909961E-2,4.315548539E-1,9.463082314E0
1.399503552E0,-1.382651478E-1,3.836708367E-1,9.357737541E0
1.401501469E0,-3.106476665E-1,-2.334346622E-2,9.180566788E0
1.403499438E0,-4.112041295E-1,-5.213374496E-1,1.093791008E1
1.405497458E0,-3.633201122E-1,-2.819172442E-1,1.023880386E1
1.407495531E0,-2.292448133E-1,2.454056777E-2,9.467870712E0
1.409493604E0,-2.436100245E-1,7.721300423E-2,9.496601105E0
1.411491729E0,-3.058592677E-1,-1.669955701E-1,9.573215485E0
1.413489854E0,-3.345896900E-1,-3.920505345E-1,9.946710587E0
1.415487979E0,-2.627636492E-1,-2.962824702E-1,9.965864182E0
1.417486104E0,-2.100912035E-1,-4.249707982E-2,9.472659111E0
1.419484229E0,-1.334767491E-1,5.327098817E-2,9.534908295E0
1.421482354E0,-2.005143911E-1,3.411737457E-2,9.209297180E0
1.423480479E0,-1.669955701E-1,-9.516951442E-2,9.712079048E0
1.425478396E0,-9.038111567E-2,-1.669955701E-1,9.922768593E0
1.427476313E0,-1.855506375E-2,-4.728548229E-2,9.827000618E0
1.429474229E0,-8.978256024E-3,1.975216344E-2,1.006163311E1
1.431472146E0,1.017535757E-2,4.369417951E-2,9.894038200E0
1.433469854E0,5.805939063E-2,1.250970364E-1,9.630676270E0
1.435467563E0,4.369417951E-2,1.442506462E-1,9.534908295E0
1.437465271E0,5.985504249E-4,2.454056777E-2,9.592369080E0
1.439462979E0,6.763619930E-2,-2.334346622E-2,9.803058624E0
1.441460688E0,4.369417951E-2,8.678980917E-2,9.616311073E0
1.443458396E0,7.721300423E-2,9.157821536E-2,9.645041466E0
1.445456104E0,-8.978256024E-3,3.411737457E-2,1.000895977E1
1.447453813E0,-2.813187055E-2,1.346738487E-1,1.014303589E1
1.449451521E0,6.284779310E-2,2.879027426E-1,9.491812706E0
1.451449229E0,6.763619930E-2,2.448071241E-1,9.501389503E0
1.453446938E0,-4.189853091E-3,9.636662155E-2,9.827000618E0
1.455444646E0,1.975216344E-2,6.284779310E-2,9.941922188E0
1.457442354E0,2.932897024E-2,2.112883031E-1,9.702502251E0
1.459440063E0,7.242459804E-2,3.118447661E-1,9.314641953E0
1.461437771E0,9.636662155E-2,3.166331649E-1,9.573215485E0
1.463435479E0,1.059434265E-1,2.256535143E-1,9.755174637E0
1.465433188E0,1.059434265E-1,3.262099922E-1,9.769539833E0
1.467430896E0,1.346738487E-1,3.405751884E-1,9.716867447E0
1.469428604E0,1.586158574E-1,2.974795699E-1,9.812635422E0
1.471426313E0,1.155202314E-1,1.825578809E-1,9.817423820E0
1.473424021E0,1.490390599E-1,2.064998895E-1,9.961075783E0
1.475421729E0,1.825578809E-1,2.974795699E-1,9.716867447E0
1.477419438E0,1.538274586E-1,4.171896577E-1,9.587580681E0
1.479417146E0,1.250970364E-1,2.926911712E-1,9.678560257E0
1.481414854E0,7.242459804E-2,1.634042710E-1,9.951498985E0
1.483412563E0,1.203086376E-1,2.687491477E-1,9.755174637E0
1.485410219E0,8.678980917E-2,4.028244317E-1,9.214085579E0
1.487407823E0,6.284779310E-2,3.884592354E-1,9.496601105E0
1.489405323E0,5.327098817E-2,2.448071241E-1,9.932345390E0
1.491402823E0,8.678980917E-2,2.831143439E-1,1.000417137E1
1.493400323E0,9.157821536E-2,3.214215636E-1,9.764751434E0
1.495397823E0,1.496376097E-2,3.070563674E-1,9.769539833E0
1.497395375E0,-3.292027488E-2,4.076128304E-1,9.659406662E0
1.499392979E0,4.369417951E-2,4.746504724E-1,9.463082314E0
1.501390636E0,2.932897024E-2,4.459200799E-1,9.884461403E0
1.503388396E0,1.975216344E-2,4.507084787E-1,1.010951710E1
1.505386261E0,1.250970364E-1,6.470330358E-1,9.836577415E0
1.507384229E0,1.298854351E-1,7.571662664E-1,9.592369080E0
1.509382250E0,1.729810685E-1,7.188590765E-1,9.678560257E0
1.511380323E0,2.112883031E-1,6.566098332E-1,9.721655846E0
1.513378448E0,1.634042710E-1,5.991489887E-1,9.616311073E0
1.515376573E0,6.763619930E-2,5.847837925E-1,9.889249802E0
1.517374698E0,1.203086376E-1,6.661866307E-1,9.683348656E0
1.519372823E0,1.442506462E-1,7.092822790E-1,9.290699959E0
1.521370948E0,7.721300423E-2,4.938040972E-1,9.961075783E0
1.523368865E0,6.763619930E-2,3.453635871E-1,1.002811337E1
1.525366469E0,-1.855506375E-2,4.219780564E-1,9.755174637E0
1.527364073E0,1.017535757E-2,6.087257862E-1,9.305065155E0
1.529361677E0,2.932897024E-2,5.704185367E-1,9.415198326E0
1.531359281E0,4.848258570E-2,4.602852762E-1,9.855731010E0
1.533356886E0,-3.770867735E-2,4.315548539E-1,1.005684471E1
1.535354490E0,1.017535757E-2,5.129576921E-1,1.006163311E1
1.537352094E0,-8.978256024E-3,6.613982320E-1,9.683348656E0
1.539349698E0,5.985504249E-4,6.949170232E-1,9.357737541E0
1.541347302E0,-1.334767491E-1,5.081692934E-1,9.683348656E0
1.543344906E0,-8.559270948E-2,3.645172119E-1,1.006642151E1
1.545342563E0,-6.165069342E-2,3.980360329E-1,1.003769016E1
1.547340271E0,-5.686229095E-2,6.230909824E-1,9.429563522E0
1.549338031E0,-6.165069342E-2,6.853402257E-1,9.170989990E0
1.551335844E0,-1.238999367E-1,5.512649417E-1,9.668983459E0
1.553333708E0,-1.143231317E-1,4.411316514E-1,9.884461403E0
1.555331625E0,-3.770867735E-2,5.129576921E-1,9.759963036E0
1.557329594E0,-4.249707982E-2,5.560533404E-1,9.779116631E0
1.559327615E0,-3.770867735E-2,5.368997455E-1,9.879673004E0
1.561325636E0,-8.559270948E-2,5.464765429E-1,9.793481827E0
1.563323656E0,-1.047463268E-1,3.501519859E-1,1.017176628E1
1.565321677E0,-7.122749835E-2,4.028244317E-1,1.045428181E1
1.567319698E0,-3.770867735E-2,8.194155097E-1,9.343372345E0
1.569317615E0,-4.728548229E-2,8.625111580E-1,9.214085579E0
1.571315167E0,-1.574187577E-1,6.613982320E-1,9.448717117E0
1.573312719E0,-2.292448133E-1,6.039373875E-1,9.759963036E0
1.575310271E0,-1.909375787E-1,5.799953341E-1,9.697713852E0
1.577307823E0,-1.717839688E-1,6.087257862E-1,1.000417137E1
1.579305375E0,-6.165069342E-2,7.188590765E-1,9.850942612E0
1.581302927E0,-7.122749835E-2,7.284358740E-1,9.472659111E0
1.583300479E0,-9.516951442E-2,5.129576921E-1,9.989806175E0
1.585298083E0,-6.643909961E-2,5.129576921E-1,9.855731010E0
1.587295740E0,-9.516951442E-2,6.709750295E-1,9.381679535E0
1.589293448E0,-1.430535465E-1,7.428010702E-1,9.218873978E0
1.591291208E0,-1.526303589E-1,6.135141850E-1,9.563638687E0
1.593289021E0,-7.122749835E-2,4.028244317E-1,1.010472870E1
1.595286886E0,-1.286883354E-1,4.459200799E-1,1.034893703E1
1.597284802E0,-1.143231317E-1,6.901286244E-1,9.654618263E0
1.599282719E0,-1.191115379E-1,7.332242727E-1,9.113529205E0
1.601280636E0,-1.047463268E-1,6.374561787E-1,9.329007149E0
1.603278552E0,-2.483984232E-1,3.884592354E-1,9.860519409E0
1.605276469E0,-2.005143911E-1,3.262099922E-1,1.002811337E1
1.607274386E0,-8.080431074E-2,4.411316514E-1,1.008078671E1
1.609272302E0,2.454056777E-2,5.991489887E-1,9.716867447E0
1.611270219E0,8.678980917E-2,6.661866307E-1,9.530119896E0
1.613268136E0,1.059434265E-1,5.799953341E-1,9.506177902E0
1.615266052E0,5.805939063E-2,3.980360329E-1,1.009994030E1
1.617263552E0,3.890577704E-2,2.543839216E-1,9.769539833E0
1.619261052E0,1.490390599E-1,3.166331649E-1,9.999382973E0
1.621258552E0,1.490390599E-1,7.236474752E-1,9.578003883E0
1.623256052E0,1.921346933E-1,8.242039084E-1,8.874108315E0
1.625253552E0,1.777694821E-1,4.794389009E-1,9.755174637E0
1.627251052E0,1.442506462E-1,4.507084787E-1,1.033457184E1
1.629248604E0,1.969230920E-1,6.901286244E-1,9.764751434E0
1.631246208E0,2.879027426E-1,7.715315223E-1,9.482235909E0
1.633243865E0,2.831143439E-1,7.092822790E-1,9.688137054E0
1.635241573E0,1.825578809E-1,8.098387122E-1,9.530119896E0
1.637239333E0,1.729810685E-1,7.523778677E-1,9.194931984E0
1.639237146E0,2.017114908E-1,5.512649417E-1,1.006163311E1
1.641235011E0,1.729810685E-1,5.847837925E-1,9.913191795E0
1.643232875E0,2.495955229E-1,6.087257862E-1,9.372102737E0
1.645230740E0,3.309983909E-1,7.044938207E-1,1.016218948E1
1.647228604E0,3.549404144E-1,8.385691643E-1,9.745597839E0
1.649226469E0,3.405751884E-1,7.428010702E-1,9.453505516E0
1.651224333E0,2.304419130E-1,5.033808947E-1,1.024359226E1
1.653222198E0,2.687491477E-1,4.076128304E-1,1.011430550E1
1.655220063E0,3.214215636E-1,5.416881442E-1,9.827000618E0
1.657217927E0,3.309983909E-1,5.943605900E-1,9.419986725E0
1.659215792E0,2.352303118E-1,4.459200799E-1,9.779116631E0
1.661213656E0,1.490390599E-1,1.921346933E-1,1.014303589E1
1.663211521E0,1.681926697E-1,2.735375464E-1,9.879673004E0
1.665209386E0,2.454056777E-2,3.597288132E-1,9.242815971E0
1.667207250E0,-7.601590455E-2,1.634042710E-1,9.190143585E0
1.669205115E0,-8.978256024E-3,-6.165069342E-2,9.870096207E0
1.671202979E0,-9.516951442E-2,-5.686229095E-2,9.429563522E0
1.673200844E0,-5.686229095E-2,-1.191115379E-1,9.692925453E0
1.675198708E0,-7.601590455E-2,-2.005143911E-1,9.850942612E0
1.677196573E0,-7.601590455E-2,-2.148796022E-1,1.014303589E1
1.679194438E0,-2.100912035E-1,-1.669955701E-1,9.736021042E0
1.681192250E0,-2.100912035E-1,-1.717839688E-1,9.515754700E0
1.683189906E0,-2.675520480E-1,-1.191115379E-1,9.477447510E0
1.685187458E0,-2.914940715E-1,-1.334767491E-1,9.520543098E0
1.687185011E0,-2.962824702E-1,-1.478419602E-1,9.927556992E0
1.689182563E0,-3.202244639E-1,-1.622071713E-1,1.001853657E1
1.691180115E0,-2.292448133E-1,-9.995792061E-2,9.798270226E0
1.693177667E0,-2.292448133E-1,-9.038111567E-2,9.755174637E0
1.695175219E0,-2.579752207E-1,-9.038111567E-2,9.601945877E0
1.697172771E0,-3.441664875E-1,-1.957259923E-1,9.673771858E0
1.699170323E0,-2.819172442E-1,-1.813607812E-1,9.807847023E0
1.701167875E0,-1.957259923E-1,-4.249707982E-2,9.443928719E0
1.703165427E0,-1.382651478E-1,3.890577704E-2,9.329007149E0
1.705162979E0,-1.861491799E-1,-2.627636492E-1,1.004247856E1
1.707160531E0,-1.382651478E-1,-3.010708690E-1,1.038724422E1
1.709158083E0,-2.627636492E-1,-1.238999367E-1,9.879673004E0
1.711155636E0,-2.292448133E-1,2.932897024E-2,9.846154213E0
1.713153188E0,-1.765723825E-1,5.805939063E-2,9.491812706E0
1.715150792E0,-1.669955701E-1,5.386953708E-3,9.783905029E0
1.717148448E0,-9.038111567E-2,6.763619930E-2,9.573215485E0
1.719146156E0,-1.047463268E-1,-2.334346622E-2,9.736021042E0
1.721143917E0,-6.165069342E-2,2.687491477E-1,9.865307808E0
1.723141729E0,2.454056777E-2,4.124012291E-1,8.639476776E0
1.725139594E0,-8.978256024E-3,1.538274586E-1,9.807847023E0
1.727137458E0,-1.855506375E-2,-1.376665942E-2,1.035372543E1
1.729135323E0,-8.978256024E-3,1.017535757E-2,1.030105305E1
1.731133188E0,-4.189853091E-3,3.214215636E-1,1.007120991E1
1.733131052E0,5.386953708E-3,3.693056107E-1,9.329007149E0
1.735128917E0,-1.143231317E-1,2.064998895E-1,9.961075783E0
1.737126677E0,-7.122749835E-2,2.974795699E-1,9.731232643E0
1.739124125E0,-7.601590455E-2,3.022679687E-1,9.410409927E0
1.741121417E0,-1.191115379E-1,3.549404144E-1,9.587580681E0
1.743118708E0,-1.095347255E-1,4.985924959E-1,9.166201591E0
1.745116000E0,-1.334767491E-1,5.416881442E-1,9.314641953E0
1.747113292E0,-1.095347255E-1,4.028244317E-1,1.008557510E1
1.749110583E0,-8.080431074E-2,2.448071241E-1,1.029147625E1
1.751107927E0,-1.855506375E-2,4.411316514E-1,1.021007347E1
1.753105323E0,1.975216344E-2,6.518214345E-1,9.319430351E0
1.755102771E0,3.411737457E-2,3.740940094E-1,9.611522675E0
1.757100271E0,-1.376665942E-2,1.442506462E-1,1.020049667E1
1.759097823E0,3.411737457E-2,2.256535143E-1,9.980229378E0
1.761095427E0,-2.334346622E-2,2.974795699E-1,9.372102737E0
1.763093083E0,6.763619930E-2,2.974795699E-1,9.783905029E0
1.765090792E0,8.200141042E-2,3.214215636E-1,9.606734276E0
1.767088552E0,4.369417951E-2,2.735375464E-1,9.424775124E0
1.769086313E0,1.107318252E-1,1.634042710E-1,9.678560257E0
1.771084073E0,1.059434265E-1,1.250970364E-1,9.783905029E0
1.773081833E0,1.107318252E-1,1.298854351E-1,9.448717117E0
1.775079594E0,1.777694821E-1,1.011550203E-1,1.017176628E1
1.777077354E0,1.634042710E-1,3.890577704E-2,9.664195061E0
1.779075115E0,1.586158574E-1,1.975216344E-2,1.016697788E1
1.781072875E0,2.256535143E-1,3.890577704E-2,1.016218948E1
1.783070636E0,1.586158574E-1,2.352303118E-1,9.223662376E0
1.785068396E0,9.636662155E-2,2.735375464E-1,9.855731010E0
1.787066156E0,1.107318252E-1,2.160767019E-1,9.448717117E0
1.789063813E0,1.634042710E-1,2.879027426E-1,9.578003883E0
1.791061417E0,3.890577704E-2,2.543839216E-1,9.400833130E0
1.793059021E0,-3.770867735E-2,1.017535757E-2,9.683348656E0
1.795056625E0,2.932897024E-2,4.369417951E-2,1.037287903E1
1.797054229E0,1.250970364E-1,3.501519859E-1,9.472659111E0
1.799051833E0,1.681926697E-1,3.405751884E-1,9.472659111E0
1.801049438E0,6.284779310E-2,2.208651006E-1,9.649829865E0
1.803047042E0,5.386953708E-3,-3.770867735E-2,9.860519409E0
1.805044646E0,-4.728548229E-2,-1.669955701E-1,1.013824749E1
1.807042250E0,-1.334767491E-1,-1.376665942E-2,9.740809441E0
1.809039854E0,-1.478419602E-1,1.203086376E-1,9.415198326E0
1.811037458E0,-1.669955701E-1,1.921346933E-1,9.156624794E0
1.813035063E0,-1.430535465E-1,2.932897024E-2,9.309853554E0
1.815032667E0,-9.516951442E-2,-1.957259923E-1,1.014782429E1
1.817030271E0,-1.047463268E-1,-9.516951442E-2,9.961075783E0
1.819027875E0,-7.122749835E-2,-9.995792061E-2,1.008557510E1
1.821025479E0,-1.669955701E-1,4.848258570E-2,9.788693428E0
1.823023083E0,-1.526303589E-1,2.974795699E-1,9.429563522E0
1.825020688E0,-2.244564146E-1,2.064998895E-1,9.472659111E0
1.827018292E0,-2.914940715E-1,-1.376665942E-2,9.736021042E0
1.829015896E0,-1.382651478E-1,-1.238999367E-1,1.003290176E1
1.831013552E0,7.242459804E-2,-1.574187577E-1,1.014782429E1
1.833011208E0,2.932897024E-2,1.107318252E-1,9.726444244E0
1.835008865E0,9.157821536E-2,2.160767019E-1,9.482235909E0
1.837006521E0,1.975216344E-2,3.118447661E-1,9.654618263E0
1.839004177E0,1.017535757E-2,2.112883031E-1,9.625887871E0
1.841001833E0,-8.978256024E-3,1.059434265E-1,1.008078671E1
1.842999490E0,1.059434265E-1,1.921346933E-1,9.961075783E0
1.844997146E0,1.538274586E-1,3.884592354E-1,9.204508781E0
1.846994802E0,1.250970364E-1,4.602852762E-1,9.482235909E0
1.848992458E0,2.735375464E-1,4.602852762E-1,9.448717117E0
1.850990115E0,3.405751884E-1,3.884592354E-1,9.434351921E0
1.852987771E0,3.788824081E-1,2.926911712E-1,9.999382973E0
1.854985427E0,4.267664552E-1,3.118447661E-1,9.999382973E0
1.856983083E0,4.794389009E-1,3.166331649E-1,9.946710587E0
1.858980740E0,4.363432527E-1,3.262099922E-1,9.975440979E0
1.860978396E0,5.273229480E-1,4.698620737E-1,9.807847023E0
1.862976052E0,4.794389009E-1,5.464765429E-1,9.065644264E0
1.864973708E0,5.177460909E-1,5.321113467E-1,9.645041466E0
1.866971365E0,4.076128304E-1,3.645172119E-1,9.630676270E0
1.868969021E0,4.411316514E-1,3.597288132E-1,1.001853657E1
1.870966677E0,5.081692934E-1,5.321113467E-1,9.927556992E0
1.872964333E0,5.033808947E-1,5.847837925E-1,9.329007149E0
1.874961990E0,5.560533404E-1,4.076128304E-1,1.003290176E1
1.876959646E0,4.698620737E-1,2.256535143E-1,1.004247856E1
1.878957302E0,4.363432527E-1,2.448071241E-1,9.827000618E0
1.880954958E0,4.028244317E-1,3.645172119E-1,9.563638687E0
1.882952615E0,3.405751884E-1,2.735375464E-1,9.530119896E0
1.884950271E0,2.831143439E-1,1.921346933E-1,9.415198326E0
1.886947927E0,1.634042710E-1,6.284779310E-2,9.922768593E0
1.888945583E0,1.873462796E-1,1.017535757E-2,1.005205631E1
1.890943240E0,1.921346933E-1,3.890577704E-2,9.601945877E0
1.892940896E0,4.369417951E-2,-7.368155718E-1,9.692925453E0
1.894938552E0,1.011550203E-1,-1.062427044E0,9.716867447E0
1.896936208E0,3.411737457E-2,-9.187749028E-1,9.113529205E0
1.898933865E0,-5.207388848E-2,-1.177348733E0,1.003290176E1
1.900931521E0,5.805939063E-2,-9.714473486E-1,1.039203262E1
1.902929229E0,3.411737457E-2,-6.171054840E-1,9.999382973E0
1.904926990E0,1.729810685E-1,-3.728969097E-1,9.625887871E0
1.906924802E0,3.890577704E-2,-2.292448133E-1,9.419986725E0
1.908922667E0,-5.207388848E-2,-2.867056429E-1,9.860519409E0
1.910920583E0,-1.286883354E-1,-2.819172442E-1,9.898826599E0
1.912918552E0,-1.382651478E-1,-2.771288455E-1,1.001853657E1
1.914916573E0,-1.526303589E-1,-9.516951442E-2,9.865307808E0
1.916914646E0,-1.765723825E-1,7.242459804E-2,9.668983459E0
1.918912771E0,-1.382651478E-1,1.346738487E-1,9.472659111E0
1.920910948E0,-1.717839688E-1,1.298854351E-1,9.472659111E0
1.922909125E0,-1.143231317E-1,1.155202314E-1,9.985017776E0
1.924907302E0,-1.143231317E-1,1.586158574E-1,1.002332497E1
1.926905479E0,-1.376665942E-2,1.777694821E-1,9.879673004E0
1.928903656E0,2.932897024E-2,2.783259451E-1,1.001853657E1
1.930901729E0,8.200141042E-2,6.039373875E-1,9.482235909E0
1.932899386E0,3.890577704E-2,5.416881442E-1,8.965087891E0
1.934897042E0,2.454056777E-2,3.932476342E-1,9.510966301E0
1.936894698E0,-1.376665942E-2,3.453635871E-1,9.831789017E0
1.938892354E0,8.200141042E-2,3.166331649E-1,9.697713852E0
1.940890011E0,-8.978256024E-3,1.873462796E-1,1.025316906E1
1.942887667E0,6.284779310E-2,3.501519859E-1,9.975440979E0
1.944885323E0,6.284779310E-2,4.554968774E-1,9.419986725E0
1.946882979E0,5.386953708E-3,2.112883031E-1,9.324218750E0
1.948880636E0,-1.376665942E-2,5.386953708E-3,1.016218948E1
1.950878344E0,1.011550203E-1,2.256535143E-1,9.736021042E0
1.952876104E0,9.636662155E-2,2.974795699E-1,9.381679535E0
1.954873917E0,2.932897024E-2,1.538274586E-1,9.391256332E0
1.956871781E0,5.805939063E-2,1.496376097E-2,9.592369080E0
1.958869698E0,7.721300423E-2,5.386953708E-3,9.965864182E0
1.960867615E0,3.411737457E-2,-5.686229095E-2,1.006163311E1
1.962865531E0,5.386953708E-3,-9.038111567E-2,9.664195061E0
1.964863448E0,1.107318252E-1,-5.979518890E-1,9.702502251E0
1.966861365E0,1.777694821E-1,-6.410474777E-1,1.006163311E1
1.968859281E0,1.969230920E-1,-5.787982345E-1,9.879673004E0
1.970857198E0,2.064998895E-1,-2.962824702E-1,9.630676270E0
1.972855115E0,1.729810685E-1,1.017535757E-2,9.367314339E0
1.974853031E0,1.059434265E-1,6.763619930E-2,9.391256332E0
1.976850948E0,-8.978256024E-3,-1.855506375E-2,9.712079048E0
1.978848865E0,-4.728548229E-2,-1.376665942E-2,1.022443867E1
1.980846781E0,-4.728548229E-2,1.203086376E-1,1.014782429E1
1.982844698E0,-5.207388848E-2,2.208651006E-1,1.005684471E1
1.984842615E0,-5.207388848E-2,2.112883031E-1,9.855731010E0
1.986840531E0,-7.122749835E-2,4.315548539E-1,9.463082314E0
1.988838344E0,-1.047463268E-1,4.602852762E-1,9.448717117E0
1.990836000E0,-8.559270948E-2,3.740940094E-1,9.668983459E0
1.992833656E0,-1.855506375E-2,4.171896577E-1,9.908403397E0
1.994831313E0,-1.526303589E-1,8.678980917E-2,9.530119896E0
1.996828969E0,-2.053027898E-1,-7.601590455E-2,9.759963036E0
1.998826625E0,-1.909375787E-1,-5.207388848E-2,9.726444244E0
2.000824281E0,-2.100912035E-1,8.200141042E-2,9.898826599E0
2.002821990E0,-1.957259923E-1,2.160767019E-1,9.678560257E0
2.004819750E0,-2.053027898E-1,2.064998895E-1,9.621099472E0
2.006817563E0,-2.388216257E-1,3.118447661E-1,9.578003883E0
2.008815427E0,-2.100912035E-1,3.788824081E-1,9.510966301E0
2.010813344E0,-1.526303589E-1,3.166331649E-1,9.798270226E0
2.012811313E0,-8.559270948E-2,2.256535143E-1,1.009994030E1
2.014809333E0,-9.516951442E-2,2.112883031E-1,1.001853657E1
2.016807406E0,-9.038111567E-2,4.602852762E-1,9.515754700E0
2.018805531E0,-7.601590455E-2,5.656301379E-1,9.094375610E0
2.020803708E0,-1.478419602E-1,6.183025837E-1,9.396044731E0
2.022801938E0,-9.038111567E-2,7.236474752E-1,9.491812706E0
2.024800167E0,-4.189853091E-3,5.895721912E-1,9.831789017E0
2.026798396E0,5.805939063E-2,3.070563674E-1,1.041597462E1
2.028796625E0,3.411737457E-2,2.400187254E-1,1.067933655E1
2.030794594E0,8.200141042E-2,4.459200799E-1,9.956287384E0
2.032792458E0,-8.978256024E-3,7.523778677E-1,9.228450775E0
2.034790323E0,1.975216344E-2,7.475894690E-1,8.902838707E0
2.036788188E0,-1.143231317E-1,3.645172119E-1,9.649829865E0
2.038786052E0,-6.643909961E-2,3.214215636E-1,1.037287903E1
2.040783917E0,3.890577704E-2,4.507084787E-1,9.745597839E0
2.042781781E0,1.496376097E-2,4.985924959E-1,9.659406662E0
2.044779646E0,-1.376665942E-2,4.171896577E-1,9.683348656E0
2.046777511E0,-1.095347255E-1,3.693056107E-1,9.348160744E0
2.048775375E0,-1.478419602E-1,1.681926697E-1,9.582792282E0
2.050773240E0,-1.622071713E-1,1.969230920E-1,9.841365814E0
2.052771104E0,-2.005143911E-1,3.453635871E-1,9.611522675E0
2.054768969E0,-2.292448133E-1,3.788824081E-1,9.281123161E0
2.056766833E0,-2.771288455E-1,5.327098817E-2,9.879673004E0
2.058764698E0,-4.112041295E-1,-2.813187055E-2,9.903614998E0
2.060762563E0,-2.867056429E-1,7.721300423E-2,1.007599831E1
2.062760427E0,-4.303577542E-1,2.256535143E-1,9.874884605E0
2.064758292E0,-5.069721937E-1,3.309983909E-1,9.740809441E0
2.066756208E0,-4.495113790E-1,2.017114908E-1,9.621099472E0
2.068754177E0,-4.255693555E-1,5.985504249E-4,9.736021042E0
2.070752198E0,-4.926069975E-1,-4.189853091E-3,9.965864182E0
2.072750271E0,-4.638765752E-1,1.975216344E-2,9.803058624E0
2.074748396E0,-5.213374496E-1,2.208651006E-1,9.453505516E0
2.076746521E0,-6.027402878E-1,4.219780564E-1,9.568427086E0
2.078744646E0,-7.368155718E-1,3.453635871E-1,9.482235909E0
2.080742771E0,-6.554127336E-1,1.442506462E-1,9.994594574E0
2.082740583E0,-5.357026458E-1,3.890577704E-2,1.014782429E1
2.084738292E0,-5.644330382E-1,1.586158574E-1,9.999382973E0
2.086735896E0,-5.309142470E-1,2.448071241E-1,9.463082314E0
2.088733500E0,-4.542997777E-1,1.250970364E-1,9.261969566E0
2.090731052E0,-4.255693555E-1,1.496376097E-2,9.678560257E0
2.092728604E0,-3.824737072E-1,7.242459804E-2,9.841365814E0
2.094726156E0,-4.399345517E-1,6.284779310E-2,9.889249802E0
2.096723708E0,-3.824737072E-1,1.155202314E-1,9.678560257E0
2.098721261E0,-3.250128925E-1,1.777694821E-1,9.817423820E0
2.100718813E0,-2.292448133E-1,3.022679687E-1,9.525331497E0
2.102716417E0,-9.995792061E-2,1.586158574E-1,9.645041466E0
2.104714073E0,-5.686229095E-2,5.805939063E-2,1.032020664E1
2.106711781E0,-8.559270948E-2,1.203086376E-1,9.994594574E0
2.108709542E0,2.932897024E-2,2.831143439E-1,9.573215485E0
2.110707354E0,3.411737457E-2,4.363432527E-1,9.415198326E0
2.112705219E0,9.157821536E-2,6.518214345E-1,9.276334763E0
2.114703136E0,-4.189853091E-3,6.613982320E-1,9.357737541E0
2.116701104E0,7.721300423E-2,3.693056107E-1,1.003290176E1
2.118699125E0,2.495955229E-1,2.735375464E-1,1.027711105E1
2.120697198E0,2.352303118E-1,4.411316514E-1,9.798270226E0
2.122695323E0,2.256535143E-1,4.842272997E-1,9.759963036E0
2.124693448E0,2.112883031E-1,4.124012291E-1,9.783905029E0
2.126691573E0,2.208651006E-1,4.698620737E-1,9.467870712E0
2.128689698E0,1.586158574E-1,2.687491477E-1,9.664195061E0
2.130687823E0,1.490390599E-1,3.788824081E-1,9.477447510E0
2.132685948E0,1.969230920E-1,4.219780564E-1,9.487024307E0
2.134683969E0,1.155202314E-1,2.160767019E-1,9.621099472E0
2.136681990E0,9.636662155E-2,-3.770867735E-2,1.005684471E1
2.138680011E0,2.932897024E-2,-9.038111567E-2,1.042555141E1
2.140678031E0,-1.376665942E-2,1.729810685E-1,9.736021042E0
2.142676052E0,2.454056777E-2,3.405751884E-1,9.372102737E0
2.144674073E0,3.411737457E-2,1.921346933E-1,9.563638687E0
2.146672094E0,5.327098817E-2,-1.855506375E-2,1.008557510E1
2.148670115E0,1.059434265E-1,3.411737457E-2,1.016218948E1
2.150668136E0,2.454056777E-2,1.586158574E-1,9.697713852E0
2.152666156E0,-9.516951442E-2,1.538274586E-1,9.563638687E0
2.154663969E0,-2.813187055E-2,1.825578809E-1,9.668983459E0
2.156661781E0,-5.686229095E-2,2.448071241E-1,9.386467934E0
2.158659594E0,-3.770867735E-2,2.879027426E-1,9.372102737E0
2.160657406E0,-8.978256024E-3,3.022679687E-1,9.736021042E0
2.162655219E0,-5.207388848E-2,2.783259451E-1,9.827000618E0
2.164653031E0,-5.207388848E-2,2.160767019E-1,9.922768593E0
2.166650844E0,1.155202314E-1,1.825578809E-1,9.870096207E0
2.168648656E0,7.721300423E-2,1.825578809E-1,9.678560257E0
2.170646469E0,3.411737457E-2,1.921346933E-1,9.477447510E0
2.172644281E0,5.805939063E-2,3.214215636E-1,9.645041466E0
2.174642146E0,5.386953708E-3,2.879027426E-1,9.635464668E0
2.176640011E0,-7.601590455E-2,1.634042710E-1,1.004247856E1
2.178637927E0,-4.189853091E-3,1.634042710E-1,1.009994030E1
2.180635844E0,-3.292027488E-2,3.597288132E-1,9.573215485E0
2.182633761E0,4.369417951E-2,3.788824081E-1,9.410409927E0
2.184631677E0,1.777694821E-1,1.729810685E-1,9.865307808E0
2.186629646E0,1.059434265E-1,1.634042710E-1,1.032978344E1
2.188627615E0,1.017535757E-2,4.124012291E-1,9.649829865E0
2.190625583E0,4.369417951E-2,5.512649417E-1,9.276334763E0
2.192623552E0,2.454056777E-2,5.081692934E-1,9.683348656E0
2.194621521E0,6.763619930E-2,5.033808947E-1,9.616311073E0
2.196619490E0,-3.292027488E-2,5.321113467E-1,9.750386238E0
2.198617458E0,9.636662155E-2,4.985924959E-1,9.908403397E0
2.200615427E0,8.200141042E-2,5.273229480E-1,9.870096207E0
2.202613396E0,6.284779310E-2,5.129576921E-1,9.386467934E0
2.204611365E0,2.932897024E-2,4.459200799E-1,9.946710587E0
2.206609333E0,-2.334346622E-2,4.842272997E-1,9.386467934E0
2.208607302E0,-8.978256024E-3,3.070563674E-1,9.774328232E0
2.210605271E0,2.454056777E-2,2.352303118E-1,1.021965027E1
2.212603240E0,3.411737457E-2,4.076128304E-1,9.994594574E0
2.214601208E0,-2.334346622E-2,6.757634282E-1,9.348160744E0
2.216599177E0,1.496376097E-2,7.140706778E-1,8.993818283E0
2.218597146E0,-9.038111567E-2,4.985924959E-1,9.621099472E0
2.220595011E0,-7.122749835E-2,2.448071241E-1,1.022443867E1
2.222592875E0,-1.855506375E-2,1.825578809E-1,1.038245583E1
2.224590740E0,-1.855506375E-2,1.634042710E-1,9.740809441E0
2.226588604E0,-1.238999367E-1,4.848258570E-2,9.860519409E0
2.228586469E0,-1.478419602E-1,3.411737457E-2,9.668983459E0
2.230584333E0,-2.053027898E-1,2.256535143E-1,9.300276756E0
2.232582198E0,-2.962824702E-1,1.921346933E-1,9.214085579E0
2.234580063E0,-2.148796022E-1,-4.728548229E-2,9.827000618E0
2.236577927E0,-1.861491799E-1,-1.813607812E-1,1.004247856E1
2.238575792E0,-2.340332121E-1,-2.914940715E-1,1.003769016E1
2.240573656E0,-6.643909961E-2,-2.723404467E-1,9.980229378E0
2.242571521E0,-1.669955701E-1,-1.143231317E-1,9.290699959E0
2.244569333E0,-8.978256024E-3,-5.207388848E-2,9.386467934E0
2.246566990E0,-8.978256024E-3,-9.038111567E-2,9.659406662E0
2.248564646E0,6.284779310E-2,-5.207388848E-2,9.846154213E0
2.250562302E0,3.411737457E-2,-8.978256024E-3,9.937133789E0
2.252559958E0,7.721300423E-2,1.298854351E-1,9.601945877E0
2.254557615E0,1.155202314E-1,1.011550203E-1,9.860519409E0
2.256555271E0,1.059434265E-1,1.107318252E-1,1.004247856E1
2.258552927E0,1.825578809E-1,1.442506462E-1,9.740809441E0
2.260550583E0,2.160767019E-1,2.256535143E-1,9.817423820E0
2.262548240E0,2.974795699E-1,4.076128304E-1,9.443928719E0
2.264545896E0,2.926911712E-1,4.267664552E-1,9.496601105E0
2.266543552E0,2.304419130E-1,2.304419130E-1,9.759963036E0
2.268541208E0,1.729810685E-1,1.298854351E-1,1.038245583E1
2.270538865E0,2.591723204E-1,3.118447661E-1,1.002811337E1
2.272536521E0,2.639607489E-1,4.459200799E-1,9.396044731E0
2.274534177E0,2.400187254E-1,4.554968774E-1,9.491812706E0
2.276531833E0,2.400187254E-1,5.081692934E-1,9.261969566E0
2.278529490E0,2.974795699E-1,5.656301379E-1,9.731232643E0
2.280527146E0,3.980360329E-1,5.752069354E-1,9.870096207E0
2.282524802E0,3.597288132E-1,5.225345492E-1,9.917980194E0
2.284522458E0,2.639607489E-1,5.512649417E-1,9.860519409E0
2.286520115E0,2.735375464E-1,6.518214345E-1,9.443928719E0
2.288517771E0,2.783259451E-1,6.374561787E-1,9.578003883E0
2.290515427E0,2.783259451E-1,5.799953341E-1,9.683348656E0
2.292513083E0,3.405751884E-1,4.650736749E-1,1.006163311E1
2.294510792E0,4.171896577E-1,5.368997455E-1,1.027232265E1
2.296508552E0,3.549404144E-1,6.709750295E-1,9.731232643E0
2.298506365E0,3.453635871E-1,6.518214345E-1,9.506177902E0
2.300504229E0,4.411316514E-1,5.799953341E-1,9.659406662E0
2.302502146E0,2.783259451E-1,6.661866307E-1,9.300276756E0
2.304500115E0,2.256535143E-1,6.278793812E-1,9.108740807E0
2.306498136E0,2.448071241E-1,3.214215636E-1,9.630676270E0
2.308496208E0,2.687491477E-1,1.490390599E-1,1.039203262E1
2.310494333E0,3.166331649E-1,2.926911712E-1,9.989806175E0
2.312492511E0,2.352303118E-1,3.693056107E-1,9.209297180E0
2.314490740E0,1.250970364E-1,1.586158574E-1,9.621099472E0
2.316489021E0,5.805939063E-2,1.059434265E-1,1.001853657E1
2.318487354E0,5.805939063E-2,1.825578809E-1,1.005205631E1
2.320485688E0,1.969230920E-1,2.591723204E-1,1.009515190E1
2.322484021E0,1.394622475E-1,4.076128304E-1,9.400833130E0
2.324482354E0,9.157821536E-2,3.309983909E-1,9.367314339E0
2.326480479E0,9.157821536E-2,3.453635871E-1,9.434351921E0
2.328478500E0,1.496376097E-2,3.357867897E-1,9.640253067E0
2.330476365E0,-5.207388848E-2,3.262099922E-1,9.697713852E0
2.332474229E0,1.496376097E-2,1.442506462E-1,1.019091988E1
2.334472094E0,1.298854351E-1,2.256535143E-1,1.015740108E1
2.336469906E0,1.586158574E-1,2.687491477E-1,9.740809441E0
2.338467719E0,1.586158574E-1,2.495955229E-1,9.635464668E0
2.340465531E0,2.064998895E-1,3.405751884E-1,9.439140320E0
2.342463344E0,1.681926697E-1,2.352303118E-1,9.616311073E0
2.344461156E0,1.394622475E-1,3.309983909E-1,1.009994030E1
2.346458969E0,1.825578809E-1,4.028244317E-1,9.621099472E0
2.348456781E0,1.490390599E-1,5.225345492E-1,9.381679535E0
2.350454594E0,1.203086376E-1,4.842272997E-1,9.099164009E0
2.352452406E0,1.011550203E-1,3.118447661E-1,1.020528507E1
2.354450219E0,1.777694821E-1,3.309983909E-1,1.044470501E1
2.356448031E0,1.442506462E-1,4.650736749E-1,9.985017776E0
2.358445844E0,1.250970364E-1,5.656301379E-1,9.688137054E0
2.360443656E0,1.538274586E-1,6.901286244E-1,9.434351921E0
2.362441521E0,8.678980917E-2,8.625111580E-1,9.510966301E0
2.364439386E0,-2.813187055E-2,6.997054219E-1,9.343372345E0
2.366437250E0,-4.249707982E-2,6.183025837E-1,1.003290176E1
2.368435115E0,-4.728548229E-2,9.247604012E-1,9.822212219E0
2.370432979E0,3.890577704E-2,1.063624144E0,9.242815971E0
2.372430844E0,5.985504249E-4,9.343371987E-1,1.003290176E1
2.374428708E0,2.454056777E-2,8.816647530E-1,9.702502251E0
2.376426573E0,2.454056777E-2,8.864531517E-1,9.817423820E0
2.378424438E0,-8.978256024E-3,8.050503135E-1,1.027711105E1
2.380422302E0,1.975216344E-2,1.010951638E0,9.707290649E0
2.382420167E0,-4.189853091E-3,9.965864420E-1,9.285911560E0
2.384417927E0,-1.526303589E-1,9.199720025E-1,9.601945877E0
2.386415479E0,-1.143231317E-1,7.906851172E-1,9.448717117E0
2.388413031E0,-7.122749835E-2,6.183025837E-1,1.007120991E1
2.390410583E0,-5.686229095E-2,5.895721912E-1,1.037287903E1
2.392408136E0,-3.770867735E-2,7.571662664E-1,9.324218750E0
2.394405688E0,-1.855506375E-2,5.321113467E-1,9.783905029E0
2.396403240E0,-1.855506375E-2,3.597288132E-1,9.750386238E0
2.398400792E0,-6.643909961E-2,2.448071241E-1,9.108740807E0
2.400398344E0,-1.478419602E-1,-1.376665942E-2,9.779116631E0
2.402395948E0,-9.038111567E-2,1.975216344E-2,1.029147625E1
2.404393604E0,-1.855506375E-2,2.112883031E-1,9.668983459E0
2.406391313E0,-1.047463268E-1,1.203086376E-1,9.970652580E0
2.408389073E0,-2.005143911E-1,1.155202314E-1,9.372102737E0
2.410386886E0,-2.196680009E-1,1.011550203E-1,9.592369080E0
2.412384750E0,-2.675520480E-1,7.721300423E-2,9.769539833E0
2.414382667E0,-2.867056429E-1,1.394622475E-1,9.214085579E0
2.416380583E0,-2.675520480E-1,-4.189853091E-3,9.592369080E0
2.418378500E0,-2.771288455E-1,-1.334767491E-1,9.917980194E0
2.420376417E0,-2.388216257E-1,-3.292027488E-2,1.017176628E1
2.422374333E0,-2.771288455E-1,3.740940094E-1,9.927556992E0
2.424372250E0,-3.298012912E-1,6.470330358E-1,8.998606682E0
2.426370167E0,-2.579752207E-1,4.602852762E-1,9.932345390E0
2.428368083E0,-2.771288455E-1,2.448071241E-1,1.002332497E1
2.430366000E0,-1.765723825E-1,4.028244317E-1,9.908403397E0
2.432363813E0,-1.382651478E-1,4.315548539E-1,9.343372345E0
2.434361625E0,-1.813607812E-1,1.442506462E-1,9.884461403E0
2.436359438E0,-1.286883354E-1,1.586158574E-1,1.071285534E1
2.438357250E0,-6.165069342E-2,4.890156984E-1,9.400833130E0
2.440355063E0,-9.995792061E-2,6.278793812E-1,9.400833130E0
2.442352875E0,-9.995792061E-2,6.422445774E-1,9.381679535E0
2.444350688E0,-9.038111567E-2,6.518214345E-1,9.180566788E0
2.446348500E0,-3.292027488E-2,3.884592354E-1,9.874884605E0
2.448346313E0,5.386953708E-3,4.554968774E-1,1.021486187E1
2.450344125E0,-3.292027488E-2,6.853402257E-1,9.400833130E0
2.452341886E0,-9.516951442E-2,5.847837925E-1,9.635464668E0
2.454339594E0,-7.601590455E-2,4.076128304E-1,1.002332497E1
2.456337302E0,1.975216344E-2,5.273229480E-1,9.874884605E0
2.458335011E0,2.454056777E-2,7.428010702E-1,9.568427086E0
2.460332719E0,-8.978256024E-3,6.949170232E-1,9.649829865E0
2.462330427E0,-6.165069342E-2,4.411316514E-1,1.004726696E1
2.464328136E0,-1.382651478E-1,4.076128304E-1,9.975440979E0
2.466325844E0,-1.334767491E-1,5.991489887E-1,9.774328232E0
2.468323552E0,-1.286883354E-1,6.805518270E-1,9.261969566E0
2.470321261E0,-1.191115379E-1,5.081692934E-1,9.683348656E0
2.472318969E0,-1.622071713E-1,2.639607489E-1,9.879673004E0
2.474316677E0,-2.340332121E-1,2.831143439E-1,9.688137054E0
2.476314386E0,-2.292448133E-1,4.076128304E-1,9.745597839E0
2.478312094E0,-2.196680009E-1,3.214215636E-1,9.510966301E0
2.480309802E0,-3.154360652E-1,1.011550203E-1,9.616311073E0
2.482307511E0,-3.585317135E-1,-1.574187577E-1,1.027711105E1
2.484305219E0,-3.202244639E-1,-1.855506375E-2,9.994594574E0
2.486302927E0,-3.250128925E-1,1.921346933E-1,9.439140320E0
2.488300636E0,-2.771288455E-1,6.763619930E-2,9.702502251E0
2.490298344E0,-2.531868219E-1,7.242459804E-2,9.769539833E0
2.492296052E0,-2.962824702E-1,2.932897024E-2,1.007120991E1
2.494293761E0,-3.106476665E-1,1.155202314E-1,9.477447510E0
2.496291469E0,-2.579752207E-1,1.298854351E-1,9.894038200E0
2.498289177E0,-1.526303589E-1,2.160767019E-1,9.822212219E0
2.500286886E0,-5.207388848E-2,3.501519859E-1,9.587580681E0
2.502284594E0,-5.207388848E-2,3.693056107E-1,9.635464668E0
2.504282302E0,1.496376097E-2,3.836708367E-1,9.712079048E0
2.506280011E0,9.636662155E-2,2.639607489E-1,9.654618263E0
2.508277719E0,1.921346933E-1,3.884592354E-1,1.036330223E1
2.510275427E0,7.721300423E-2,6.613982320E-1,9.113529205E0
2.512273136E0,1.059434265E-1,7.571662664E-1,9.276334763E0
2.514270844E0,1.155202314E-1,6.661866307E-1,9.630676270E0
2.516268552E0,1.107318252E-1,5.752069354E-1,9.453505516E0
2.518266261E0,1.538274586E-1,3.980360329E-1,1.006642151E1
2.520263969E0,1.729810685E-1,6.326677799E-1,9.985017776E0
2.522261677E0,2.160767019E-1,6.997054219E-1,9.266757965E0
2.524259386E0,2.974795699E-1,5.704185367E-1,1.002811337E1
2.526257094E0,3.357867897E-1,7.428010702E-1,9.894038200E0
2.528254802E0,3.309983909E-1,8.002619147E-1,9.333795547E0
2.530252511E0,2.926911712E-1,6.757634282E-1,9.688137054E0
2.532250219E0,2.400187254E-1,4.602852762E-1,1.052610779E1
2.534247927E0,2.639607489E-1,5.752069354E-1,1.006642151E1
2.536245636E0,1.921346933E-1,7.284358740E-1,9.305065155E0
2.538243344E0,2.256535143E-1,7.619546652E-1,9.487024307E0
2.540241052E0,2.160767019E-1,5.704185367E-1,9.228450775E0
2.542238761E0,2.017114908E-1,2.639607489E-1,1.026753426E1
2.544236469E0,2.543839216E-1,4.076128304E-1,9.927556992E0
2.546234177E0,2.304419130E-1,3.645172119E-1,9.376891136E0
2.548231833E0,1.969230920E-1,1.059434265E-1,1.022922707E1
2.550229438E0,3.070563674E-1,3.932476342E-1,9.487024307E0
2.552227042E0,2.543839216E-1,4.315548539E-1,8.888473511E0
2.554224646E0,2.783259451E-1,3.118447661E-1,9.688137054E0
2.556222250E0,2.974795699E-1,2.064998895E-1,9.898826599E0
2.558219854E0,3.214215636E-1,-9.516951442E-2,1.064581776E1
2.560217458E0,3.405751884E-1,-9.995792061E-2,1.021486187E1
2.562215063E0,2.735375464E-1,6.763619930E-2,9.860519409E0
2.564212667E0,2.160767019E-1,1.394622475E-1,8.907627106E0
2.566210271E0,1.729810685E-1,1.017535757E-2,9.597157478E0
2.568207875E0,1.825578809E-1,-4.189853091E-3,9.506177902E0
2.570205479E0,2.017114908E-1,-6.643909961E-2,9.568427086E0
2.572203083E0,1.681926697E-1,-2.292448133E-1,1.010472870E1
2.574200740E0,1.681926697E-1,-2.914940715E-1,1.004247856E1
2.576198448E0,1.155202314E-1,-2.196680009E-1,9.932345390E0
2.578196208E0,8.678980917E-2,-6.643909961E-2,9.769539833E0
2.580194021E0,3.890577704E-2,1.011550203E-1,9.506177902E0
2.582191886E0,1.017535757E-2,3.262099922E-1,9.549273491E0
2.584189750E0,1.496376097E-2,5.416881442E-1,9.276334763E0
2.586187615E0,-3.770867735E-2,5.321113467E-1,9.032125473E0
2.588185479E0,3.411737457E-2,4.124012291E-1,1.041597462E1
2.590183344E0,4.369417951E-2,4.267664552E-1,9.994594574E0
2.592180896E0,-2.334346622E-2,2.783259451E-1,9.568427086E0
2.594178448E0,-3.770867735E-2,2.400187254E-1,1.032978344E1
2.596176000E0,5.327098817E-2,5.464765429E-1,9.065644264E0
2.598173552E0,-7.122749835E-2,5.656301379E-1,9.405621529E0
2.600171104E0,-5.686229095E-2,4.124012291E-1,9.759963036E0
2.602168656E0,5.985504249E-4,3.693056107E-1,9.884461403E0
2.604166208E0,2.454056777E-2,2.687491477E-1,1.021965027E1
2.606163761E0,1.017535757E-2,3.693056107E-1,9.635464668E0
2.608161313E0,-3.292027488E-2,4.938040972E-1,9.549273491E0
2.610158865E0,-2.334346622E-2,3.022679687E-1,9.697713852E0
2.612156417E0,-1.238999367E-1,-3.770867735E-2,1.060272217E1
2.614153969E0,-1.382651478E-1,8.678980917E-2,1.067454815E1
2.616151521E0,-2.483984232E-1,5.512649417E-1,8.926780701E0
2.618149073E0,-1.286883354E-1,6.757634282E-1,8.802282333E0
2.620146625E0,-7.601590455E-2,2.352303118E-1,9.194931984E0
2.622144177E0,-1.286883354E-1,-2.867056429E-1,1.022922707E1
2.624141729E0,-7.122749835E-2,-3.058592677E-1,9.736021042E0
2.626139281E0,-1.047463268E-1,-1.574187577E-1,9.424775124E0
2.628136886E0,-8.080431074E-2,2.208651006E-1,9.281123161E0
2.630134542E0,-5.686229095E-2,3.932476342E-1,9.472659111E0
2.632132250E0,-1.574187577E-1,-5.686229095E-2,9.889249802E0
2.634130011E0,-1.334767491E-1,-3.633201122E-1,1.091875648E1
2.636127771E0,-4.728548229E-2,-9.038111567E-2,1.021965027E1
2.638125583E0,-1.238999367E-1,2.932897024E-2,9.874884605E0
2.640123448E0,-4.249707982E-2,2.974795699E-1,9.697713852E0
2.642121365E0,-7.601590455E-2,3.262099922E-1,9.012971878E0
2.644119333E0,-7.601590455E-2,6.763619930E-2,1.040639782E1
2.646117302E0,-1.191115379E-1,3.118447661E-1,9.214085579E0
2.648115271E0,-1.765723825E-1,3.645172119E-1,9.170989990E0
2.650113240E0,-1.909375787E-1,3.118447661E-1,8.974664688E0
2.652111208E0,-1.765723825E-1,-3.770867735E-2,9.941922188E0
2.654109177E0,-8.080431074E-2,-4.249707982E-2,1.034414864E1
2.656107146E0,-4.189853091E-3,1.969230920E-1,9.898826599E0
2.658104854E0,5.327098817E-2,3.118447661E-1,9.965864182E0
2.660102563E0,1.203086376E-1,3.740940094E-1,9.736021042E0
2.662100271E0,1.298854351E-1,3.501519859E-1,9.798270226E0
2.664097979E0,1.490390599E-1,3.166331649E-1,9.755174637E0
2.666095636E0,1.729810685E-1,4.076128304E-1,9.491812706E0
2.668093188E0,1.203086376E-1,3.309983909E-1,9.764751434E0
2.670090740E0,1.490390599E-1,3.645172119E-1,9.736021042E0
2.672088292E0,1.155202314E-1,1.203086376E-1,9.965864182E0
2.674085844E0,1.203086376E-1,-1.855506375E-2,9.894038200E0
2.676083396E0,1.442506462E-1,1.155202314E-1,9.807847023E0
2.678080948E0,1.442506462E-1,2.448071241E-1,9.831789017E0
2.680078500E0,1.777694821E-1,5.033808947E-1,8.768763542E0
2.682076052E0,1.681926697E-1,3.980360329E-1,8.735244751E0
2.684073656E0,2.112883031E-1,1.873462796E-1,9.922768593E0
2.686071313E0,2.208651006E-1,1.496376097E-2,9.855731010E0
2.688069021E0,1.825578809E-1,-8.978256024E-3,1.005205631E1
2.690066781E0,2.208651006E-1,-1.191115379E-1,1.014782429E1
2.692064594E0,1.777694821E-1,-1.526303589E-1,1.005684471E1
2.694062458E0,1.442506462E-1,4.848258570E-2,1.023880386E1
2.696060323E0,8.200141042E-2,1.011550203E-1,9.257181168E0
2.698058240E0,1.442506462E-1,6.284779310E-2,9.941922188E0
2.700056156E0,8.678980917E-2,3.890577704E-2,9.678560257E0
2.702054073E0,5.985504249E-4,-2.813187055E-2,9.697713852E0
2.704051990E0,-4.249707982E-2,-1.855506375E-2,9.956287384E0
2.706049906E0,-4.728548229E-2,8.200141042E-2,9.860519409E0
2.708047823E0,-3.292027488E-2,2.974795699E-1,9.386467934E0
2.710045323E0,-7.601590455E-2,2.735375464E-1,9.089587212E0
2.712042823E0,-5.207388848E-2,9.636662155E-2,9.975440979E0
2.714040323E0,-2.813187055E-2,2.454056777E-2,1.003290176E1
2.716037823E0,-1.382651478E-1,1.975216344E-2,9.625887871E0
2.718035323E0,-1.334767491E-1,-1.143231317E-1,1.027711105E1
2.720032719E0,-1.191115379E-1,-4.249707982E-2,1.008078671E1
2.722030115E0,-1.191115379E-1,1.969230920E-1,9.611522675E0
2.724027511E0,-9.038111567E-2,2.495955229E-1,9.434351921E0
2.726024906E0,-1.143231317E-1,2.112883031E-1,9.640253067E0
2.728022302E0,-1.622071713E-1,1.298854351E-1,9.630676270E0
2.730019698E0,-1.430535465E-1,1.011550203E-1,1.004726696E1
2.732017094E0,-1.669955701E-1,2.831143439E-1,9.314641953E0
2.734014542E0,-2.005143911E-1,3.262099922E-1,9.515754700E0
2.736012042E0,-2.100912035E-1,1.203086376E-1,9.903614998E0
2.738009594E0,-2.292448133E-1,3.411737457E-2,1.037766743E1
2.740007198E0,-1.861491799E-1,3.405751884E-1,9.889249802E0
2.742004854E0,-1.669955701E-1,4.650736749E-1,8.854954720E0
2.744002563E0,-2.340332121E-1,2.448071241E-1,9.592369080E0
2.746000323E0,-1.191115379E-1,1.394622475E-1,9.736021042E0
2.747998136E0,-1.957259923E-1,5.327098817E-2,9.525331497E0
2.749996000E0,-2.053027898E-1,-1.047463268E-1,1.043033981E1
2.751993917E0,-1.861491799E-1,1.681926697E-1,9.127894402E0
2.753991886E0,-9.516951442E-2,1.011550203E-1,9.463082314E0
2.755989854E0,-9.516951442E-2,-1.382651478E-1,1.039682102E1
2.757987823E0,-1.526303589E-1,1.975216344E-2,1.002811337E1
2.759985792E0,-1.622071713E-1,2.064998895E-1,9.491812706E0
2.761983761E0,-1.957259923E-1,6.763619930E-2,9.783905029E0
2.763981729E0,-2.148796022E-1,5.805939063E-2,9.697713852E0
2.765979698E0,-2.579752207E-1,1.394622475E-1,9.477447510E0
2.767977615E0,-2.531868219E-1,4.028244317E-1,9.510966301E0
2.769975323E0,-2.340332121E-1,5.512649417E-1,8.701725960E0
2.771973031E0,-2.819172442E-1,-5.686229095E-2,8.864531517E0
2.773970740E0,-1.526303589E-1,-7.176619768E-1,1.228345203E1
2.775968448E0,-9.038111567E-2,-1.430535465E-1,1.061229897E1
2.777966156E0,-3.292027488E-2,3.788824081E-1,9.099164009E0
2.779963865E0,-2.334346622E-2,2.495955229E-1,9.530119896E0
2.781961573E0,-9.038111567E-2,5.805939063E-2,9.429563522E0
2.783959281E0,-1.382651478E-1,-1.717839688E-1,9.846154213E0
2.785956990E0,-2.531868219E-1,-3.441664875E-1,9.788693428E0
2.787954698E0,-2.962824702E-1,-1.669955701E-1,9.970652580E0
2.789952406E0,-3.058592677E-1,-6.165069342E-2,9.233239174E0
2.791950115E0,-3.393780887E-1,-1.095347255E-1,9.970652580E0
2.793947823E0,-3.058592677E-1,1.017535757E-2,9.391256332E0
2.795945531E0,-3.106476665E-1,2.017114908E-1,9.032125473E0
2.797943240E0,-2.627636492E-1,8.200141042E-2,1.009994030E1
2.799940948E0,-1.957259923E-1,-1.095347255E-1,1.021486187E1
2.801938656E0,-1.382651478E-1,2.932897024E-2,9.908403397E0
2.803936365E0,-1.765723825E-1,3.890577704E-2,9.534908295E0
2.805934073E0,-7.122749835E-2,4.076128304E-1,9.668983459E0
2.807931781E0,-8.080431074E-2,6.709750295E-1,8.452729225E0
2.809929490E0,-1.047463268E-1,7.242459804E-2,9.702502251E0
2.811927198E0,-2.813187055E-2,-4.016273320E-1,1.129225254E1
2.813924906E0,6.284779310E-2,-9.038111567E-2,1.046385860E1
2.815922615E0,-2.334346622E-2,2.112883031E-1,9.649829865E0
2.817920323E0,1.017535757E-2,4.219780564E-1,9.041702271E0
2.819918031E0,-8.559270948E-2,4.171896577E-1,9.329007149E0
2.821915740E0,-3.770867735E-2,2.879027426E-1,9.836577415E0
2.823913448E0,-1.855506375E-2,1.969230920E-1,1.032978344E1
2.825911208E0,-6.165069342E-2,3.597288132E-1,9.961075783E0
2.827909021E0,-1.622071713E-1,5.464765429E-1,9.170989990E0
2.829906833E0,-1.238999367E-1,4.459200799E-1,9.558850288E0
2.831904698E0,-4.728548229E-2,2.926911712E-1,9.640253067E0
2.833902563E0,-4.249707982E-2,3.597288132E-1,1.018134308E1
2.835900427E0,5.985504249E-4,6.374561787E-1,9.501389503E0
2.837898292E0,7.721300423E-2,5.704185367E-1,9.501389503E0
2.839896156E0,1.059434265E-1,5.464765429E-1,9.731232643E0
2.841894021E0,1.777694821E-1,2.879027426E-1,1.005684471E1
2.843891886E0,1.346738487E-1,2.400187254E-1,9.956287384E0
2.845889750E0,1.059434265E-1,4.124012291E-1,9.343372345E0
2.847887615E0,1.250970364E-1,4.219780564E-1,9.118317604E0
2.849885479E0,8.678980917E-2,4.459200799E-1,9.290699959E0
2.851883344E0,9.636662155E-2,4.794389009E-1,9.467870712E0
2.853881208E0,1.059434265E-1,3.118447661E-1,1.008078671E1
2.855879073E0,1.921346933E-1,3.309983909E-1,1.018613148E1
2.857876938E0,2.304419130E-1,3.645172119E-1,9.884461403E0
2.859874802E0,2.926911712E-1,3.405751884E-1,1.029147625E1
2.861872667E0,2.304419130E-1,5.273229480E-1,9.549273491E0
2.863870531E0,2.064998895E-1,5.129576921E-1,9.788693428E0
2.865868396E0,1.442506462E-1,5.991489887E-1,9.889249802E0
2.867866261E0,6.763619930E-2,8.289923668E-1,9.295488358E0
2.869864125E0,7.721300423E-2,1.010951638E0,8.950722694E0
2.871861990E0,1.442506462E-1,6.613982320E-1,9.554061890E0
2.873859854E0,1.777694821E-1,2.400187254E-1,1.065060616E1
2.875857719E0,1.681926697E-1,2.879027426E-1,1.106240940E1
2.877855531E0,8.678980917E-2,5.799953341E-1,9.879673004E0
2.879853188E0,1.059434265E-1,9.199720025E-1,9.194931984E0
2.881850844E0,1.442506462E-1,9.056068063E-1,8.984241486E0
2.883848500E0,6.763619930E-2,5.368997455E-1,9.908403397E0
2.885846156E0,1.586158574E-1,4.938040972E-1,1.014782429E1
2.887843813E0,2.591723204E-1,6.805518270E-1,9.812635422E0
2.889841469E0,1.011550203E-1,7.906851172E-1,9.075222015E0
2.891839125E0,1.298854351E-1,7.236474752E-1,9.314641953E0
2.893836781E0,4.848258570E-2,3.501519859E-1,9.549273491E0
2.895834438E0,5.805939063E-2,-1.376665942E-2,1.048780060E1
2.897832094E0,1.059434265E-1,2.256535143E-1,1.023880386E1
2.899829750E0,1.777694821E-1,6.805518270E-1,9.060855865E0
2.901827406E0,1.346738487E-1,6.278793812E-1,9.381679535E0
2.903825063E0,1.011550203E-1,3.740940094E-1,9.597157478E0
2.905822719E0,6.284779310E-2,7.721300423E-2,9.721655846E0
2.907820375E0,4.369417951E-2,1.975216344E-2,1.051174259E1
2.909818031E0,1.250970364E-1,4.124012291E-1,9.329007149E0
2.911815688E0,1.346738487E-1,5.177460909E-1,8.979453087E0
2.913813344E0,8.200141042E-2,2.495955229E-1,9.850942612E0
2.915811000E0,1.059434265E-1,1.969230920E-1,1.015740108E1
2.917808656E0,1.586158574E-1,7.242459804E-2,9.903614998E0
2.919806313E0,1.059434265E-1,2.304419130E-1,9.980229378E0
2.921803969E0,1.490390599E-1,3.549404144E-1,9.410409927E0
2.923801625E0,4.848258570E-2,1.394622475E-1,9.635464668E0
2.925799281E0,-2.813187055E-2,2.256535143E-1,1.017655468E1
2.927796990E0,-5.207388848E-2,4.363432527E-1,9.175778389E0
2.929794750E0,5.386953708E-3,3.166331649E-1,9.601945877E0
2.931792563E0,-8.559270948E-2,6.284779310E-2,1.034414864E1
2.933790427E0,1.496376097E-2,2.687491477E-1,1.013345909E1
2.935788344E0,4.848258570E-2,3.693056107E-1,9.554061890E0
2.937786313E0,5.985504249E-4,6.230909824E-1,9.640253067E0
2.939784333E0,1.496376097E-2,6.278793812E-1,8.893261909E0
2.941782406E0,-3.770867735E-2,-2.196680009E-1,1.042555141E1
2.943780531E0,1.155202314E-1,-8.080431074E-2,1.055004978E1
2.945778656E0,7.242459804E-2,3.166331649E-1,9.491812706E0
2.947776781E0,1.059434265E-1,4.842272997E-1,9.367314339E0
2.949774906E0,5.327098817E-2,5.273229480E-1,9.228450775E0
2.951773031E0,1.011550203E-1,5.656301379E-1,9.252392769E0
2.953770740E0,2.454056777E-2,4.602852762E-1,9.850942612E0
2.955768240E0,7.242459804E-2,4.459200799E-1,1.007599831E1
2.957765740E0,1.298854351E-1,6.374561787E-1,9.807847023E0
2.959763240E0,1.729810685E-1,8.864531517E-1,9.831789017E0
2.961760740E0,1.538274586E-1,9.199720025E-1,9.257181168E0
2.963758240E0,1.634042710E-1,6.661866307E-1,1.027232265E1
2.965755740E0,1.394622475E-1,4.459200799E-1,1.022443867E1
2.967753292E0,1.394622475E-1,5.081692934E-1,1.020528507E1
2.969750896E0,1.250970364E-1,8.672995567E-1,9.247604370E0
2.971748552E0,9.636662155E-2,8.289923668E-1,9.036913872E0
2.973746261E0,1.586158574E-1,6.949170232E-1,9.769539833E0
2.975744021E0,8.200141042E-2,7.715315223E-1,9.712079048E0
2.977741833E0,1.777694821E-1,8.720879555E-1,9.252392769E0
2.979739646E0,1.634042710E-1,6.613982320E-1,9.731232643E0
2.981737458E0,2.017114908E-1,4.028244317E-1,9.903614998E0
2.983735271E0,2.160767019E-1,1.107318252E-1,1.075595093E1
2.985733083E0,2.974795699E-1,3.836708367E-1,1.034893703E1
2.987730896E0,2.064998895E-1,5.081692934E-1,8.998606682E0
2.989728708E0,2.160767019E-1,3.118447661E-1,9.635464668E0
2.991726521E0,2.017114908E-1,1.681926697E-1,9.410409927E0
2.993724333E0,1.538274586E-1,2.831143439E-1,9.668983459E0
2.995722146E0,1.298854351E-1,3.549404144E-1,9.032125473E0
2.997719958E0,1.059434265E-1,-1.574187577E-1,9.697713852E0
2.999717823E0,1.777694821E-1,-6.266822815E-1,1.123479176E1
3.001715688E0,2.208651006E-1,1.975216344E-2,9.405621529E0
3.003713552E0,2.352303118E-1,2.352303118E-1,8.419210434E0
3.005711417E0,2.543839216E-1,-3.058592677E-1,9.922768593E0
3.007709281E0,3.357867897E-1,-3.489548862E-1,1.017176628E1
3.009707146E0,2.639607489E-1,-5.787982345E-1,9.985017776E0
3.011705011E0,2.591723204E-1,-3.872621357E-1,1.025795746E1
3.013702875E0,2.017114908E-1,-9.516951442E-2,8.989029884E0
3.015700740E0,1.969230920E-1,-5.686229095E-2,8.759186745E0
3.017698604E0,2.735375464E-1,-3.824737072E-1,1.009036350E1
3.019696469E0,2.879027426E-1,-3.298012912E-1,9.970652580E0
3.021694229E0,3.118447661E-1,1.017535757E-2,9.827000618E0
3.023691886E0,4.028244317E-1,8.200141042E-2,9.645041466E0
3.025689542E0,4.267664552E-1,5.386953708E-3,1.006642151E1
3.027687198E0,4.363432527E-1,1.059434265E-1,9.965864182E0
3.029684854E0,3.980360329E-1,-5.207388848E-2,9.956287384E0
3.031682511E0,3.309983909E-1,-4.830302000E-1,1.064581776E1
3.033680167E0,3.166331649E-1,-1.861491799E-1,9.774328232E0
3.035677823E0,3.357867897E-1,4.124012291E-1,8.749609947E0
3.037675479E0,2.160767019E-1,3.118447661E-1,8.658630371E0
3.039673136E0,1.011550203E-1,-5.207388848E-2,9.841365814E0
3.041670792E0,1.442506462E-1,-8.080431074E-2,1.001374817E1
3.043668500E0,2.160767019E-1,2.304419130E-1,9.932345390E0
3.045666261E0,2.160767019E-1,4.507084787E-1,9.357737541E0
3.047664073E0,2.064998895E-1,4.363432527E-1,9.668983459E0
3.049661886E0,2.735375464E-1,3.693056107E-1,1.005684471E1
3.051659698E0,2.304419130E-1,4.507084787E-1,9.798270226E0
3.053657511E0,1.634042710E-1,3.309983909E-1,9.956287384E0
3.055655375E0,1.346738487E-1,3.597288132E-1,1.000417137E1
3.057653240E0,6.763619930E-2,3.118447661E-1,9.448717117E0
3.059651104E0,-1.376665942E-2,4.369417951E-2,1.009994030E1
3.061648969E0,1.975216344E-2,9.157821536E-2,1.007599831E1
3.063646833E0,5.985504249E-4,5.368997455E-1,9.017760277E0
3.065644698E0,8.200141042E-2,4.219780564E-1,9.127894402E0
3.067642563E0,6.284779310E-2,3.411737457E-2,1.029147625E1
3.069640427E0,1.017535757E-2,1.155202314E-1,9.534908295E0
3.071638188E0,6.763619930E-2,3.890577704E-2,1.015740108E1
3.073635948E0,1.298854351E-1,1.203086376E-1,9.635464668E0
3.075633708E0,1.250970364E-1,1.729810685E-1,9.434351921E0
3.077631469E0,3.890577704E-2,1.442506462E-1,9.755174637E0
3.079629229E0,2.454056777E-2,9.157821536E-2,9.985017776E0
3.081626990E0,7.721300423E-2,3.070563674E-1,1.002332497E1
3.083624802E0,2.932897024E-2,4.985924959E-1,9.166201591E0
3.085622615E0,-1.855506375E-2,2.495955229E-1,9.740809441E0
3.087620427E0,-6.165069342E-2,-7.601590455E-2,1.023401546E1
3.089618240E0,-6.643909961E-2,7.721300423E-2,1.006642151E1
3.091616052E0,-2.334346622E-2,4.746504724E-1,8.984241486E0
3.093613865E0,-2.813187055E-2,6.613982320E-1,8.553285599E0
3.095611677E0,-8.080431074E-2,5.608417392E-1,9.621099472E0
3.097609490E0,-1.765723825E-1,1.681926697E-1,1.056441498E1
3.099607302E0,-1.191115379E-1,-9.516951442E-2,1.095227528E1
3.101605115E0,-1.286883354E-1,2.926911712E-1,1.032978344E1
3.103602823E0,-4.728548229E-2,5.081692934E-1,9.027337074E0
3.105600323E0,-4.728548229E-2,1.873462796E-1,9.578003883E0
3.107597823E0,-1.909375787E-1,4.848258570E-2,9.692925453E0
3.109595323E0,-1.669955701E-1,1.059434265E-1,9.477447510E0
3.111592823E0,-1.957259923E-1,-8.978256024E-3,9.798270226E0
3.113590323E0,-1.909375787E-1,1.203086376E-1,9.668983459E0
3.115587823E0,-5.686229095E-2,1.586158574E-1,9.491812706E0
3.117585323E0,-8.080431074E-2,5.386953708E-3,8.965087891E0
3.119582823E0,-1.286883354E-1,-4.590881765E-1,9.965864182E0
3.121580323E0,-6.165069342E-2,-4.686649740E-1,1.034893703E1
3.123577875E0,1.394622475E-1,-1.909375787E-1,9.568427086E0
3.125575479E0,1.442506462E-1,-1.191115379E-1,9.755174637E0
3.127573136E0,7.242459804E-2,1.586158574E-1,9.889249802E0
3.129570844E0,6.763619930E-2,2.160767019E-1,1.011430550E1
3.131568604E0,4.369417951E-2,-1.478419602E-1,1.021486187E1
3.133566417E0,-8.978256024E-3,-1.855506375E-2,9.463082314E0
3.135564281E0,9.636662155E-2,2.256535143E-1,9.798270226E0
3.137562146E0,8.200141042E-2,3.836708367E-1,8.931569099E0
3.139560011E0,1.490390599E-1,1.681926697E-1,9.621099472E0
3.141557875E0,2.256535143E-1,2.448071241E-1,9.970652580E0
3.143555740E0,1.921346933E-1,3.932476342E-1,8.869319916E0
3.145553604E0,1.634042710E-1,1.298854351E-1,1.003769016E1
3.147551469E0,7.242459804E-2,1.969230920E-1,9.917980194E0
3.149549333E0,1.394622475E-1,2.783259451E-1,9.917980194E0
3.151547198E0,7.721300423E-2,2.208651006E-1,9.793481827E0
3.153545011E0,4.369417951E-2,3.070563674E-1,9.946710587E0
3.155542823E0,5.327098817E-2,6.135141850E-1,9.611522675E0
3.157540636E0,8.200141042E-2,4.507084787E-1,9.601945877E0
3.159538448E0,7.242459804E-2,3.022679687E-1,1.013345909E1
3.161536261E0,8.678980917E-2,4.507084787E-1,9.783905029E0
3.163534073E0,6.763619930E-2,2.831143439E-1,9.860519409E0
3.165531886E0,6.284779310E-2,3.932476342E-1,1.005684471E1
3.167529750E0,1.975216344E-2,4.890156984E-1,9.127894402E0
3.169527667E0,-2.813187055E-2,7.236474752E-1,9.827000618E0
3.171525636E0,1.394622475E-1,8.433575630E-1,8.514978409E0
3.173523656E0,2.160767019E-1,2.783259451E-1,9.860519409E0
3.175521677E0,3.405751884E-1,5.805939063E-2,1.089002609E1
3.177519698E0,3.645172119E-1,2.926911712E-1,9.616311073E0
3.179517719E0,3.788824081E-1,2.932897024E-2,1.028189945E1
3.181515740E0,4.171896577E-1,1.107318252E-1,1.054526138E1
3.183513761E0,3.980360329E-1,6.949170232E-1,9.099164009E0
3.185511781E0,4.171896577E-1,8.098387122E-1,8.615534782E0
3.187509594E0,3.405751884E-1,6.039373875E-1,9.831789017E0
3.189507302E0,3.453635871E-1,4.890156984E-1,9.386467934E0
3.191505011E0,3.022679687E-1,1.729810685E-1,1.101931286E1
3.193502719E0,4.124012291E-1,3.836708367E-1,9.894038200E0
3.195500427E0,5.321113467E-1,7.044938207E-1,9.233239174E0
3.197498136E0,5.512649417E-1,7.092822790E-1,9.166201591E0
3.199495844E0,5.512649417E-1,2.591723204E-1,9.400833130E0
3.201493552E0,4.363432527E-1,2.454056777E-2,1.061708736E1
3.203491261E0,5.273229480E-1,1.873462796E-1,9.831789017E0
3.205488969E0,5.129576921E-1,3.788824081E-1,9.242815971E0
3.207486677E0,4.890156984E-1,2.064998895E-1,9.788693428E0
3.209484386E0,4.411316514E-1,-2.334346622E-2,9.980229378E0
3.211482094E0,3.405751884E-1,-2.053027898E-1,9.846154213E0
3.213479802E0,3.022679687E-1,3.890577704E-2,9.175778389E0
3.215477511E0,2.304419130E-1,-1.334767491E-1,1.012388229E1
3.217475219E0,1.825578809E-1,5.386953708E-3,9.118317604E0
3.219472927E0,2.639607489E-1,-7.122749835E-2,9.520543098E0
3.221470636E0,1.777694821E-1,-2.867056429E-1,1.013345909E1
3.223468344E0,2.735375464E-1,1.975216344E-2,9.716867447E0
3.225466052E0,3.890577704E-2,1.155202314E-1,9.506177902E0
3.227463761E0,-1.855506375E-2,-5.207388848E-2,9.563638687E0
3.229461469E0,-1.047463268E-1,-1.717839688E-1,1.032020664E1
3.231459177E0,-2.005143911E-1,1.975216344E-2,9.635464668E0
3.233456938E0,-2.675520480E-1,2.639607489E-1,9.362525940E0
3.235454750E0,-1.191115379E-1,1.634042710E-1,9.898826599E0
3.237452615E0,-1.047463268E-1,2.160767019E-1,1.037287903E1
3.239450479E0,-2.334346622E-2,4.698620737E-1,9.889249802E0
3.241448344E0,-1.765723825E-1,4.219780564E-1,9.429563522E0
3.243446208E0,-2.196680009E-1,4.938040972E-1,9.439140320E0
3.245444073E0,-1.957259923E-1,6.374561787E-1,9.429563522E0
3.247441938E0,-2.483984232E-1,5.512649417E-1,9.774328232E0
3.249439802E0,-2.340332121E-1,3.118447661E-1,1.016218948E1
3.251437667E0,-2.053027898E-1,5.752069354E-1,1.030584145E1
3.253435531E0,-8.080431074E-2,9.103952050E-1,9.223662376E0
3.255433396E0,-5.686229095E-2,8.768763542E-1,9.367314339E0
3.257431261E0,-1.095347255E-1,6.805518270E-1,9.917980194E0
3.259429125E0,-1.047463268E-1,5.752069354E-1,1.009036350E1
3.261426990E0,-8.978256024E-3,8.672995567E-1,1.001374817E1
3.263424906E0,-6.643909961E-2,1.168969035E0,9.223662376E0
3.265422875E0,-5.686229095E-2,1.465849996E0,9.376891136E0
3.267420896E0,-8.559270948E-2,1.389235497E0,9.515754700E0
3.269418917E0,-1.047463268E-1,1.015740037E0,1.085171890E1
3.271416938E0,-7.601590455E-2,9.822212458E-1,1.016697788E1
3.273414958E0,-2.148796022E-1,1.073200941E0,9.635464668E0
3.275412979E0,-2.914940715E-1,1.068412542E0,9.233239174E0
3.277411000E0,-3.441664875E-1,9.199720025E-1,8.854954720E0
3.279409021E0,-2.723404467E-1,4.746504724E-1,1.049737740E1
3.281407042E0,-2.579752207E-1,6.757634282E-1,9.745597839E0
3.283404958E0,-1.622071713E-1,7.763199210E-1,9.439140320E0
3.285402875E0,-1.334767491E-1,9.391255975E-1,9.645041466E0
3.287400792E0,-2.292448133E-1,8.816647530E-1,8.553285599E0
3.289398708E0,-4.878185987E-1,1.490390599E-1,9.932345390E0
3.291396625E0,-4.495113790E-1,-1.286883354E-1,1.105762100E1
3.293394542E0,-3.728969097E-1,3.788824081E-1,9.721655846E0
3.295392458E0,-2.053027898E-1,5.225345492E-1,9.740809441E0
3.297390375E0,-2.292448133E-1,4.985924959E-1,9.405621529E0
3.299388292E0,-3.106476665E-1,2.495955229E-1,9.994594574E0
3.301386208E0,-3.728969097E-1,1.825578809E-1,9.515754700E0
3.303384125E0,-3.728969097E-1,1.681926697E-1,1.022922707E1
3.305382042E0,-3.441664875E-1,5.608417392E-1,9.233239174E0
3.307379958E0,-2.819172442E-1,8.720879555E-1,9.022548676E0
3.309377875E0,-3.920505345E-1,5.321113467E-1,8.826224327E0
3.311375792E0,-2.196680009E-1,1.346738487E-1,1.116296577E1
3.313373708E0,-1.191115379E-1,4.698620737E-1,1.022922707E1
3.315371625E0,-1.238999367E-1,7.475894690E-1,9.352949142E0
3.317369542E0,-1.238999367E-1,6.757634282E-1,9.429563522E0
3.319367406E0,-2.053027898E-1,3.166331649E-1,1.026753426E1
3.321365271E0,-6.643909961E-2,4.219780564E-1,9.726444244E0
3.323363136E0,-8.080431074E-2,6.278793812E-1,9.616311073E0
3.325361000E0,-6.165069342E-2,7.667431235E-1,9.434351921E0
3.327358865E0,-1.376665942E-2,6.997054219E-1,9.678560257E0
3.329356729E0,-6.643909961E-2,4.028244317E-1,1.003769016E1
3.331354594E0,5.386953708E-3,4.315548539E-1,1.003290176E1
3.333352458E0,9.157821536E-2,5.895721912E-1,1.003290176E1
3.335350323E0,1.729810685E-1,6.949170232E-1,9.443928719E0
3.337348188E0,1.490390599E-1,3.118447661E-1,9.999382973E0
3.339346052E0,7.721300423E-2,3.022679687E-1,9.927556992E0
3.341343917E0,1.681926697E-1,4.411316514E-1,9.932345390E0
3.343341781E0,2.352303118E-1,6.422445774E-1,9.075222015E0
3.345339594E0,1.729810685E-1,6.039373875E-1,8.821435928E0
3.347337406E0,2.400187254E-1,3.597288132E-1,9.740809441E0
3.349335219E0,3.166331649E-1,4.219780564E-1,9.903614998E0
3.351332979E0,1.729810685E-1,2.543839216E-1,9.419986725E0
3.353330636E0,2.591723204E-1,2.112883031E-1,1.049258900E1
3.355328292E0,2.160767019E-1,4.459200799E-1,9.678560257E0
3.357325948E0,2.448071241E-1,6.087257862E-1,9.180566788E0
3.359323604E0,3.740940094E-1,7.092822790E-1,9.759963036E0
3.361321261E0,2.831143439E-1,3.262099922E-1,9.664195061E0
3.363318917E0,2.639607489E-1,6.763619930E-2,1.013824749E1
3.365316573E0,3.166331649E-1,-3.292027488E-2,1.066975975E1
3.367314229E0,2.256535143E-1,1.921346933E-1,9.530119896E0
3.369311886E0,1.346738487E-1,2.454056777E-2,9.645041466E0
3.371309594E0,1.586158574E-1,2.208651006E-1,9.611522675E0
3.373307354E0,1.059434265E-1,2.448071241E-1,8.854954720E0
3.375305167E0,8.200141042E-2,4.848258570E-2,9.424775124E0
3.377303031E0,7.721300423E-2,-4.112041295E-1,1.051174259E1
3.379300948E0,1.394622475E-1,-3.441664875E-1,1.096664047E1
3.381298917E0,2.454056777E-2,-1.286883354E-1,9.142259598E0
3.383296938E0,-1.376665942E-2,5.985504249E-4,9.118317604E0
3.385294958E0,1.017535757E-2,-1.143231317E-1,9.391256332E0
3.387292979E0,-8.559270948E-2,-4.351461530E-1,9.740809441E0
3.389291000E0,-7.122749835E-2,-7.272387743E-1,1.072722054E1
3.391288865E0,-2.813187055E-2,-3.920505345E-1,9.774328232E0
3.393286677E0,-4.189853091E-3,-2.962824702E-1,9.601945877E0
3.395284490E0,1.975216344E-2,-5.596446395E-1,9.750386238E0
3.397282302E0,1.346738487E-1,-5.165489912E-1,1.051174259E1
3.399280115E0,1.681926697E-1,-1.143231317E-1,8.567650795E0
3.401277927E0,6.763619930E-2,-1.813607812E-1,8.821435928E0
3.403275427E0,1.975216344E-2,-4.734533727E-1,9.544485092E0
3.405272927E0,-1.143231317E-1,-7.224503756E-1,9.793481827E0
3.407270427E0,-2.813187055E-2,-6.123170853E-1,1.056441498E1
3.409267927E0,1.017535757E-2,-4.207809567E-1,9.218873978E0
3.411265427E0,-4.189853091E-3,-4.973953962E-1,1.012388229E1
3.413262927E0,1.017535757E-2,-3.489548862E-1,9.597157478E0
3.415260479E0,-5.207388848E-2,-3.345896900E-1,8.965087891E0
3.417258083E0,-4.249707982E-2,-3.633201122E-1,1.022443867E1
3.419255740E0,3.411737457E-2,-4.399345517E-1,9.750386238E0
3.421253448E0,-8.080431074E-2,-7.176619768E-1,9.989806175E0
3.423251208E0,-8.559270948E-2,-8.086416125E-1,1.031062984E1
3.425249021E0,-7.122749835E-2,-6.793547273E-1,9.736021042E0
3.427246886E0,-8.559270948E-2,-5.692214370E-1,9.721655846E0
3.429244750E0,-3.770867735E-2,1.017535757E-2,8.749609947E0
3.431242615E0,-6.165069342E-2,-9.038111567E-2,6.958747387E0
3.433240479E0,-4.207809567E-1,-2.168548107E0,1.213022327E1
3.435238344E0,-1.861491799E-1,-1.684919477E0,1.306875038E1
3.437236208E0,-6.165069342E-2,-3.633201122E-1,8.371326447E0
3.439234073E0,-7.601590455E-2,-1.095347255E-1,8.653841972E0
3.441231938E0,-1.143231317E-1,-3.824737072E-1,9.008183479E0
3.443229802E0,-2.388216257E-1,-5.835866928E-1,9.482235909E0
3.445227458E0,-3.058592677E-1,-9.522937536E-1,1.023401546E1
3.447225115E0,-2.675520480E-1,-1.019331336E0,1.047822380E1
3.449222771E0,-2.388216257E-1,-7.224503756E-1,1.002811337E1
3.451220427E0,-1.909375787E-1,-4.159925580E-1,9.573215485E0
3.453218083E0,-1.861491799E-1,-2.244564146E-1,9.381679535E0
3.455215740E0,-2.005143911E-1,-9.038111567E-2,9.194931984E0
3.457213396E0,-1.334767491E-1,-2.867056429E-1,9.448717117E0
3.459211052E0,-2.196680009E-1,-7.751228213E-1,1.027232265E1
3.461208708E0,-1.286883354E-1,-5.596446395E-1,1.058356857E1
3.463206365E0,-1.622071713E-1,-1.382651478E-1,9.118317604E0
3.465204021E0,-1.526303589E-1,-1.861491799E-1,9.472659111E0
3.467201677E0,-2.244564146E-1,-3.393780887E-1,1.027232265E1
3.469199333E0,-3.010708690E-1,-1.813607812E-1,9.477447510E0
3.471196990E0,-2.483984232E-1,-5.207388848E-2,9.640253067E0
3.473194698E0,-2.053027898E-1,-7.601590455E-2,9.554061890E0
3.475192458E0,-2.292448133E-1,-1.813607812E-1,9.697713852E0
3.477190271E0,-1.861491799E-1,-1.334767491E-1,1.000895977E1
3.479188136E0,-1.765723825E-1,-3.770867735E-2,9.554061890E0
3.481186052E0,-2.579752207E-1,-4.249707982E-2,9.702502251E0
3.483184021E0,-2.867056429E-1,-6.165069342E-2,9.788693428E0
3.485182042E0,-2.340332121E-1,-1.669955701E-1,9.702502251E0
3.487180115E0,-1.430535465E-1,-1.622071713E-1,9.592369080E0
3.489178240E0,5.985504249E-4,-2.100912035E-1,9.702502251E0
3.491176417E0,1.681926697E-1,-3.010708690E-1,1.017176628E1
3.493174594E0,1.011550203E-1,-3.154360652E-1,9.874884605E0
3.495172771E0,1.394622475E-1,-1.574187577E-1,9.568427086E0
3.497170948E0,1.586158574E-1,-1.478419602E-1,9.324218750E0
3.499169125E0,1.586158574E-1,-1.669955701E-1,9.745597839E0
3.501167302E0,1.921346933E-1,-3.393780887E-1,9.764751434E0
3.503165115E0,2.543839216E-1,-3.441664875E-1,9.855731010E0
3.505162927E0,2.831143439E-1,-2.436100245E-1,9.721655846E0
3.507160740E0,2.687491477E-1,-1.143231317E-1,9.261969566E0
3.509158552E0,3.070563674E-1,-1.957259923E-1,9.649829865E0
3.511156365E0,3.453635871E-1,-3.776853085E-1,1.032499504E1
3.513154073E0,3.118447661E-1,-4.399345517E-1,1.000895977E1
3.515151729E0,4.171896577E-1,-2.388216257E-1,9.913191795E0
3.517149386E0,4.124012291E-1,-2.436100245E-1,9.597157478E0
3.519147042E0,4.411316514E-1,-1.765723825E-1,9.750386238E0
3.521144698E0,4.890156984E-1,7.242459804E-2,9.324218750E0
3.523142354E0,4.794389009E-1,1.017535757E-2,9.467870712E0
3.525140011E0,4.938040972E-1,-8.080431074E-2,9.659406662E0
3.527137667E0,4.698620737E-1,-9.516951442E-2,1.016218948E1
3.529135323E0,4.602852762E-1,-7.601590455E-2,9.745597839E0
3.531132979E0,4.985924959E-1,1.681926697E-1,9.592369080E0
3.533130636E0,5.129576921E-1,1.921346933E-1,9.554061890E0
3.535128292E0,4.746504724E-1,1.969230920E-1,9.736021042E0
3.537126000E0,5.177460909E-1,2.543839216E-1,9.961075783E0
3.539123761E0,4.985924959E-1,2.160767019E-1,9.817423820E0
3.541121573E0,4.124012291E-1,2.932897024E-2,1.019570827E1
3.543119386E0,4.219780564E-1,1.490390599E-1,9.870096207E0
3.545117198E0,3.549404144E-1,1.825578809E-1,9.348160744E0
3.547115011E0,2.448071241E-1,-1.143231317E-1,9.755174637E0
3.549112823E0,2.064998895E-1,-1.376665942E-2,1.025316906E1
3.551110636E0,2.400187254E-1,3.166331649E-1,9.151836395E0
3.553108448E0,1.921346933E-1,5.321113467E-1,8.763975143E0
3.555106261E0,1.203086376E-1,3.645172119E-1,9.491812706E0
3.557104073E0,3.890577704E-2,-4.189853091E-3,1.000895977E1
3.559101886E0,1.496376097E-2,-1.238999367E-1,1.035372543E1
3.561099698E0,8.200141042E-2,1.538274586E-1,9.913191795E0
3.563097511E0,8.200141042E-2,2.495955229E-1,9.343372345E0
3.565095323E0,-4.249707982E-2,1.250970364E-1,9.841365814E0
3.567093136E0,-7.122749835E-2,1.250970364E-1,9.496601105E0
3.569090948E0,-1.286883354E-1,-1.286883354E-1,9.870096207E0
3.571088761E0,-1.430535465E-1,-9.995792061E-2,1.021007347E1
3.573086573E0,-2.100912035E-1,-4.728548229E-2,9.324218750E0
3.575084386E0,-2.771288455E-1,5.985504249E-4,9.692925453E0
3.577082198E0,-2.867056429E-1,-1.238999367E-1,9.827000618E0
3.579080011E0,-3.441664875E-1,-2.292448133E-1,1.015740108E1
3.581077823E0,-3.537433147E-1,-1.909375787E-1,1.006642151E1
3.583075375E0,-3.920505345E-1,-1.382651478E-1,9.774328232E0
3.585072875E0,-3.489548862E-1,-4.728548229E-2,9.860519409E0
3.587070375E0,-3.824737072E-1,-1.376665942E-2,9.606734276E0
3.589067875E0,-3.633201122E-1,4.848258570E-2,9.491812706E0
3.591065375E0,-3.250128925E-1,9.157821536E-2,9.199720383E0
3.593062875E0,-3.106476665E-1,-1.143231317E-1,9.597157478E0
3.595060375E0,-2.723404467E-1,-1.957259923E-1,1.020528507E1
3.597057927E0,-1.909375787E-1,-4.249707982E-2,9.941922188E0
3.599055531E0,-1.143231317E-1,8.200141042E-2,9.530119896E0
3.601053188E0,2.352303118E-1,-3.106476665E-1,9.309853554E0
3.603050896E0,1.155202314E-1,-3.058592677E-1,9.894038200E0
3.605048656E0,6.763619930E-2,-1.717839688E-1,9.640253067E0
3.607046469E0,4.848258570E-2,-1.376665942E-2,9.491812706E0
3.609044333E0,9.157821536E-2,-3.770867735E-2,9.697713852E0
3.611042250E0,1.011550203E-1,-2.675520480E-1,1.009515190E1
3.613040219E0,1.490390599E-1,-2.771288455E-1,1.051653099E1
3.615038240E0,1.729810685E-1,4.369417951E-2,9.635464668E0
3.617036313E0,1.155202314E-1,1.107318252E-1,9.472659111E0
3.619034438E0,1.203086376E-1,1.969230920E-1,9.793481827E0
3.621032615E0,2.112883031E-1,4.315548539E-1,9.017760277E0
3.623030792E0,2.112883031E-1,2.112883031E-1,9.601945877E0
3.625028969E0,1.250970364E-1,5.985504249E-4,1.044470501E1
3.627027146E0,1.777694821E-1,1.586158574E-1,1.002332497E1
3.629025323E0,2.879027426E-1,4.267664552E-1,9.616311073E0
3.631023500E0,3.645172119E-1,6.230909824E-1,9.108740807E0
3.633021521E0,2.304419130E-1,5.752069354E-1,9.329007149E0
3.635019438E0,2.400187254E-1,5.608417392E-1,9.659406662E0
3.637017094E0,2.304419130E-1,5.464765429E-1,9.458293915E0
3.639014750E0,2.543839216E-1,4.076128304E-1,9.927556992E0
3.641012406E0,3.022679687E-1,5.273229480E-1,1.010951710E1
3.643010063E0,3.932476342E-1,6.374561787E-1,9.664195061E0
3.645007719E0,3.262099922E-1,3.645172119E-1,1.016697788E1
3.647005375E0,3.070563674E-1,4.028244317E-1,1.048780060E1
3.649003031E0,2.974795699E-1,6.470330358E-1,9.329007149E0
3.651000688E0,2.495955229E-1,8.002619147E-1,9.376891136E0
3.652998344E0,2.352303118E-1,7.140706778E-1,9.166201591E0
3.654996000E0,1.873462796E-1,3.693056107E-1,9.793481827E0
3.656993656E0,2.400187254E-1,2.448071241E-1,1.048780060E1
3.658991313E0,2.831143439E-1,3.836708367E-1,9.688137054E0
3.660988969E0,2.064998895E-1,6.183025837E-1,9.410409927E0
3.662986677E0,2.017114908E-1,4.602852762E-1,9.736021042E0
3.664984438E0,9.636662155E-2,4.985924959E-1,9.999382973E0
3.666982250E0,6.284779310E-2,6.039373875E-1,9.410409927E0
3.668980115E0,1.538274586E-1,4.602852762E-1,9.630676270E0
3.670978031E0,1.490390599E-1,1.346738487E-1,1.015261269E1
3.672976000E0,1.777694821E-1,5.386953708E-3,1.024838066E1
3.674973969E0,2.017114908E-1,2.064998895E-1,1.009994030E1
3.676971938E0,1.873462796E-1,4.890156984E-1,8.821435928E0
3.678969906E0,1.586158574E-1,3.597288132E-1,9.151836395E0
3.680967875E0,3.411737457E-2,8.200141042E-2,9.985017776E0
3.682965844E0,3.890577704E-2,1.394622475E-1,9.419986725E0
3.684963813E0,-4.728548229E-2,-2.334346622E-2,9.769539833E0
3.686961781E0,-7.122749835E-2,-6.643909961E-2,9.980229378E0
3.688959594E0,1.496376097E-2,7.721300423E-2,9.592369080E0
3.690957302E0,-2.813187055E-2,4.848258570E-2,9.836577415E0
3.692955011E0,1.203086376E-1,4.848258570E-2,9.558850288E0
3.694952719E0,1.155202314E-1,-8.559270948E-2,1.004726696E1
3.696950427E0,2.932897024E-2,-4.728548229E-2,1.028189945E1
3.698948136E0,3.890577704E-2,1.969230920E-1,9.520543098E0
3.700945844E0,-6.165069342E-2,1.777694821E-1,9.419986725E0
3.702943552E0,-1.430535465E-1,5.985504249E-4,9.750386238E0
3.704941261E0,-1.765723825E-1,5.985504249E-4,9.985017776E0
3.706939021E0,-1.813607812E-1,-3.292027488E-2,9.822212219E0
3.708936833E0,-2.053027898E-1,1.250970364E-1,9.707290649E0
3.710934698E0,-1.765723825E-1,2.064998895E-1,9.501389503E0
3.712932615E0,-1.909375787E-1,1.059434265E-1,9.276334763E0
3.714930583E0,-2.867056429E-1,-4.728548229E-2,9.917980194E0
3.716928604E0,-3.537433147E-1,2.454056777E-2,9.630676270E0
3.718926677E0,-3.345896900E-1,1.496376097E-2,9.429563522E0
3.720924802E0,-2.914940715E-1,-7.122749835E-2,9.874884605E0
3.722922927E0,-2.867056429E-1,-1.957259923E-1,1.008557510E1
3.724921052E0,-2.723404467E-1,-1.669955701E-1,1.037766743E1
3.726919177E0,-2.579752207E-1,1.538274586E-1,9.443928719E0
3.728917302E0,-2.819172442E-1,3.693056107E-1,8.979453087E0
3.730915427E0,-2.483984232E-1,8.200141042E-2,9.601945877E0
3.732913552E0,-1.478419602E-1,-7.122749835E-2,1.007120991E1
3.734911677E0,-1.334767491E-1,4.848258570E-2,9.822212219E0
3.736909802E0,-1.813607812E-1,6.284779310E-2,9.779116631E0
3.738907927E0,-2.053027898E-1,1.496376097E-2,9.908403397E0
3.740906052E0,-1.286883354E-1,-3.770867735E-2,1.002332497E1
3.742904177E0,-2.819172442E-1,-1.047463268E-1,9.870096207E0
3.744902302E0,-2.675520480E-1,9.636662155E-2,9.898826599E0
3.746900375E0,-2.723404467E-1,3.645172119E-1,8.783128738E0
3.748898240E0,-2.340332121E-1,3.070563674E-1,9.319430351E0
3.750896104E0,-2.005143911E-1,6.763619930E-2,9.707290649E0
3.752893969E0,-2.053027898E-1,-1.526303589E-1,1.052610779E1
3.754891781E0,-1.334767491E-1,1.538274586E-1,1.009036350E1
3.756889490E0,-1.047463268E-1,3.022679687E-1,9.520543098E0
3.758887198E0,1.059434265E-1,1.729810685E-1,9.611522675E0
3.760884906E0,8.200141042E-2,2.448071241E-1,9.113529205E0
3.762882615E0,-5.207388848E-2,2.783259451E-1,9.611522675E0
3.764880323E0,-4.249707982E-2,2.783259451E-1,9.678560257E0
3.766878031E0,-4.249707982E-2,2.495955229E-1,1.016697788E1
3.768875740E0,-2.334346622E-2,3.884592354E-1,1.000895977E1
3.770873448E0,-4.249707982E-2,5.225345492E-1,9.688137054E0
3.772871208E0,-2.334346622E-2,4.459200799E-1,9.970652580E0
3.774869021E0,-9.516951442E-2,4.459200799E-1,9.855731010E0
3.776866886E0,-1.047463268E-1,4.746504724E-1,9.352949142E0
3.778864750E0,-8.978256024E-3,5.033808947E-1,9.673771858E0
3.780862615E0,1.975216344E-2,2.735375464E-1,1.012388229E1
3.782860479E0,-4.189853091E-3,1.969230920E-1,1.025795746E1
3.784858344E0,-5.686229095E-2,2.974795699E-1,9.558850288E0
3.786856208E0,-4.189853091E-3,3.309983909E-1,9.630676270E0
3.788854073E0,-3.770867735E-2,2.591723204E-1,9.305065155E0
3.790851938E0,-1.765723825E-1,1.346738487E-1,9.975440979E0
3.792849802E0,-6.643909961E-2,3.022679687E-1,9.640253067E0
3.794847667E0,-1.717839688E-1,2.831143439E-1,9.496601105E0
3.796845271E0,-1.526303589E-1,1.634042710E-1,9.707290649E0
3.798842875E0,-1.095347255E-1,1.681926697E-1,9.889249802E0
3.800840479E0,-1.047463268E-1,3.357867897E-1,9.324218750E0
3.802838083E0,-2.483984232E-1,1.298854351E-1,9.937133789E0
3.804835688E0,-3.154360652E-1,6.763619930E-2,1.010951710E1
3.806833292E0,-3.250128925E-1,2.017114908E-1,9.573215485E0
3.808830948E0,-2.675520480E-1,1.586158574E-1,9.649829865E0
3.810828656E0,-2.819172442E-1,-6.165069342E-2,9.874884605E0
3.812826417E0,-2.819172442E-1,5.805939063E-2,1.033457184E1
3.814824229E0,-2.723404467E-1,3.022679687E-1,9.022548676E0
3.816822094E0,-3.441664875E-1,1.873462796E-1,9.376891136E0
3.818820011E0,-2.340332121E-1,1.394622475E-1,9.951498985E0
3.820817979E0,-3.202244639E-1,1.250970364E-1,9.534908295E0
3.822816000E0,-1.095347255E-1,-2.292448133E-1,9.477447510E0
3.824814073E0,-1.238999367E-1,-1.765723825E-1,1.010951710E1
3.826812198E0,-1.717839688E-1,-8.080431074E-2,9.865307808E0
3.828810375E0,-2.340332121E-1,1.873462796E-1,1.016697788E1
3.830808604E0,-1.334767491E-1,3.932476342E-1,9.443928719E0
3.832806886E0,-2.100912035E-1,2.879027426E-1,9.640253067E0
3.834805219E0,-2.483984232E-1,1.346738487E-1,1.004247856E1
3.836803552E0,-3.250128925E-1,1.250970364E-1,1.008078671E1
3.838801886E0,-2.436100245E-1,2.926911712E-1,9.922768593E0
3.840800219E0,-3.250128925E-1,5.847837925E-1,9.329007149E0
3.842798396E0,-3.154360652E-1,8.337807655E-1,8.907627106E0
3.844796417E0,-4.064157307E-1,8.289923668E-1,8.395268440E0
3.846794333E0,-3.250128925E-1,-1.143231317E-1,9.803058624E0
3.848792250E0,1.394622475E-1,-7.894880176E-1,1.150294209E1
3.850790063E0,8.200141042E-2,-1.526303589E-1,9.477447510E0
3.852787875E0,5.327098817E-2,4.554968774E-1,8.941145897E0
3.854785688E0,5.386953708E-3,6.278793812E-1,8.974664688E0
3.856783500E0,5.386953708E-3,4.028244317E-1,9.865307808E0
3.858781313E0,-6.165069342E-2,1.203086376E-1,1.101931286E1
3.860779125E0,-1.334767491E-1,3.070563674E-1,1.072243214E1
3.862776938E0,-2.627636492E-1,7.380126715E-1,9.951498985E0
3.864774750E0,-2.962824702E-1,8.385691643E-1,8.960299492E0
3.866772563E0,-3.633201122E-1,5.895721912E-1,9.965864182E0
3.868770375E0,-3.824737072E-1,7.811083198E-1,9.716867447E0
3.870768188E0,-4.782418013E-1,1.073200941E0,8.984241486E0
3.872766000E0,-4.686649740E-1,1.020528436E0,9.204508781E0
3.874763865E0,-4.782418013E-1,8.529343605E-1,9.855731010E0
3.876761729E0,-4.159925580E-1,7.811083198E-1,9.846154213E0
3.878759594E0,-2.148796022E-1,6.613982320E-1,1.032499504E1
3.880757458E0,-2.244564146E-1,7.092822790E-1,1.003769016E1
3.882755323E0,-6.643909961E-2,9.726444483E-1,9.410409927E0
3.884753240E0,5.985504249E-4,7.188590765E-1,9.458293915E0
3.886751208E0,7.721300423E-2,5.129576921E-1,1.037766743E1
3.888749229E0,-2.334346622E-2,4.985924959E-1,1.001374817E1
3.890747250E0,2.454056777E-2,5.273229480E-1,9.510966301E0
3.892745271E0,1.975216344E-2,5.225345492E-1,9.688137054E0
3.894743292E0,7.242459804E-2,4.842272997E-1,9.453505516E0
3.896741313E0,1.777694821E-1,3.836708367E-1,1.007599831E1
3.898739333E0,2.112883031E-1,4.890156984E-1,9.578003883E0
3.900737354E0,4.369417951E-2,4.746504724E-1,9.783905029E0
3.902735323E0,1.538274586E-1,4.842272997E-1,9.573215485E0
3.904733136E0,1.059434265E-1,3.022679687E-1,9.740809441E0
3.906730948E0,1.155202314E-1,2.831143439E-1,9.793481827E0
3.908728761E0,1.873462796E-1,3.932476342E-1,9.549273491E0
3.910726573E0,3.501519859E-1,3.932476342E-1,9.501389503E0
3.912724386E0,3.262099922E-1,2.304419130E-1,1.009515190E1
3.914722198E0,2.160767019E-1,3.501519859E-1,1.015740108E1
3.916720011E0,2.448071241E-1,4.554968774E-1,9.463082314E0
3.918717823E0,2.064998895E-1,3.980360329E-1,9.568427086E0
3.920715636E0,2.400187254E-1,3.549404144E-1,9.568427086E0
3.922713448E0,2.208651006E-1,5.464765429E-1,9.568427086E0
3.924711261E0,2.304419130E-1,4.602852762E-1,9.635464668E0
3.926709073E0,3.405751884E-1,3.405751884E-1,1.047822380E1
3.928706938E0,3.070563674E-1,4.985924959E-1,9.668983459E0
3.930704854E0,2.304419130E-1,6.470330358E-1,9.108740807E0
3.932702823E0,2.687491477E-1,3.597288132E-1,9.913191795E0
3.934700792E0,2.112883031E-1,1.777694821E-1,1.037287903E1
3.936698761E0,1.538274586E-1,3.693056107E-1,9.439140320E0
3.938696781E0,1.538274586E-1,5.129576921E-1,9.285911560E0
3.940694854E0,2.017114908E-1,3.980360329E-1,9.678560257E0
3.942692979E0,2.208651006E-1,5.368997455E-1,9.965864182E0
3.944691156E0,1.634042710E-1,6.278793812E-1,9.568427086E0
3.946689333E0,1.921346933E-1,5.321113467E-1,9.783905029E0
3.948687511E0,1.394622475E-1,4.554968774E-1,1.025316906E1
3.950685688E0,1.825578809E-1,6.326677799E-1,9.530119896E0
3.952683865E0,1.538274586E-1,6.374561787E-1,9.611522675E0
3.954682042E0,1.538274586E-1,5.943605900E-1,9.850942612E0
3.956680219E0,1.634042710E-1,3.597288132E-1,9.846154213E0
3.958678396E0,1.634042710E-1,4.076128304E-1,1.033936024E1
3.960676469E0,9.636662155E-2,9.391255975E-1,9.190143585E0
3.962674386E0,1.011550203E-1,1.087566137E0,8.567650795E0
3.964672302E0,3.411737457E-2,5.847837925E-1,9.649829865E0
3.966670219E0,1.490390599E-1,3.453635871E-1,1.087087250E1
3.968668083E0,1.059434265E-1,6.853402257E-1,9.759963036E0
3.970665948E0,9.636662155E-2,8.337807655E-1,9.879673004E0
3.972663761E0,6.763619930E-2,6.901286244E-1,9.879673004E0
3.974661573E0,-1.855506375E-2,6.135141850E-1,9.846154213E0
3.976659386E0,-4.728548229E-2,6.997054219E-1,9.745597839E0
3.978657198E0,2.932897024E-2,8.672995567E-1,9.046490669E0
3.980655011E0,3.890577704E-2,7.667431235E-1,9.261969566E0
3.982652823E0,1.346738487E-1,7.715315223E-1,9.573215485E0
3.984650636E0,9.636662155E-2,6.613982320E-1,9.362525940E0
3.986648448E0,1.298854351E-1,4.842272997E-1,1.039682102E1
3.988646313E0,1.490390599E-1,6.374561787E-1,9.491812706E0
3.990644229E0,1.298854351E-1,6.326677799E-1,9.415198326E0
3.992642198E0,1.921346933E-1,5.560533404E-1,1.007120991E1
3.994640167E0,1.729810685E-1,3.357867897E-1,9.941922188E0
3.996638136E0,2.639607489E-1,2.495955229E-1,1.033936024E1
3.998636104E0,2.495955229E-1,4.219780564E-1,9.764751434E0
4.000634125E0,1.346738487E-1,5.512649417E-1,9.166201591E0
4.002632198E0,3.890577704E-2,5.512649417E-1,9.549273491E0
4.004630271E0,3.411737457E-2,6.039373875E-1,9.357737541E0
4.006628344E0,5.386953708E-3,4.363432527E-1,9.439140320E0
4.008626417E0,4.848258570E-2,2.454056777E-2,1.091875648E1
4.010624542E0,1.203086376E-1,1.681926697E-1,1.043991661E1
4.012622667E0,5.805939063E-2,3.932476342E-1,9.252392769E0
4.014620792E0,-1.855506375E-2,1.777694821E-1,9.961075783E0
4.016618917E0,-1.095347255E-1,2.448071241E-1,9.573215485E0
4.018617042E0,-2.436100245E-1,5.321113467E-1,8.763975143E0
4.020615167E0,-2.723404467E-1,2.448071241E-1,9.156624794E0
4.022613292E0,-2.388216257E-1,-1.382651478E-1,1.059314537E1
4.024611417E0,-1.478419602E-1,-8.978256024E-3,1.001853657E1
4.026609542E0,-1.334767491E-1,1.442506462E-1,9.860519409E0
4.028607667E0,-1.382651478E-1,3.022679687E-1,9.716867447E0
4.030605792E0,-1.478419602E-1,3.980360329E-1,9.434351921E0
4.032603917E0,-1.095347255E-1,5.033808947E-1,9.534908295E0
4.034602042E0,-8.559270948E-2,2.112883031E-1,9.649829865E0
4.036600167E0,-1.526303589E-1,-2.196680009E-1,1.010951710E1
4.038598188E0,-1.430535465E-1,-1.095347255E-1,1.086608410E1
4.040596208E0,-1.861491799E-1,2.687491477E-1,8.902838707E0
4.042594229E0,-1.334767491E-1,3.884592354E-1,9.080010414E0
4.044592146E0,-1.047463268E-1,1.873462796E-1,9.712079048E0
4.046590063E0,-1.095347255E-1,5.805939063E-2,9.941922188E0
4.048587927E0,-6.165069342E-2,1.975216344E-2,1.014303589E1
4.050585792E0,5.386953708E-3,8.200141042E-2,1.002332497E1
4.052583656E0,1.975216344E-2,3.597288132E-1,9.712079048E0
4.054581521E0,-1.855506375E-2,6.374561787E-1,8.883685112E0
4.056579386E0,-5.207388848E-2,4.938040972E-1,9.084798813E0
4.058577250E0,-1.376665942E-2,4.554968774E-1,9.779116631E0
4.060575115E0,-6.165069342E-2,2.064998895E-1,1.032499504E1
4.062572979E0,-4.189853091E-3,2.495955229E-1,1.076073933E1
4.064570844E0,1.017535757E-2,7.236474752E-1,9.180566788E0
4.066568708E0,2.932897024E-2,6.853402257E-1,9.185355186E0
4.068566573E0,5.805939063E-2,5.033808947E-1,1.024359226E1
4.070564438E0,5.327098817E-2,4.459200799E-1,1.055004978E1
4.072562302E0,1.107318252E-1,4.746504724E-1,1.046385860E1
4.074560167E0,5.805939063E-2,8.385691643E-1,9.319430351E0
4.076558031E0,-8.978256024E-3,9.678560495E-1,9.060855865E0
4.078555792E0,-8.559270948E-2,8.720879555E-1,8.898050308E0
4.080553552E0,-9.516951442E-2,5.895721912E-1,9.668983459E0
4.082551313E0,-3.292027488E-2,-7.601590455E-2,1.036809063E1
4.084549073E0,6.284779310E-2,6.278793812E-1,1.015261269E1
4.086546833E0,-1.855506375E-2,1.077989340E0,7.959523678E0
