"Time (s)","Acceleration x (m/s^2)","Acceleration y (m/s^2)","Acceleration z (m/s^2)"
2.133719600E-2,1.250970364E-1,2.639607489E-1,9.865307808E0
2.333526900E-2,1.346738487E-1,2.687491477E-1,9.884461403E0
2.533334200E-2,1.442506462E-1,2.687491477E-1,9.846154213E0
2.733141500E-2,1.298854351E-1,2.687491477E-1,9.841365814E0
2.932948800E-2,1.250970364E-1,2.783259451E-1,9.817423820E0
3.132756100E-2,1.107318252E-1,2.495955229E-1,9.798270226E0
3.332563400E-2,9.636662155E-2,2.543839216E-1,9.783905029E0
3.532370600E-2,1.011550203E-1,2.543839216E-1,9.774328232E0
3.732177900E-2,1.203086376E-1,2.543839216E-1,9.764751434E0
3.931985200E-2,1.203086376E-1,2.495955229E-1,9.783905029E0
4.131792500E-2,1.059434265E-1,2.543839216E-1,9.793481827E0
4.331599800E-2,1.250970364E-1,2.495955229E-1,9.793481827E0
4.531412300E-2,1.203086376E-1,2.639607489E-1,9.807847023E0
4.731230000E-2,1.011550203E-1,2.639607489E-1,9.831789017E0
4.931052900E-2,9.157821536E-2,2.591723204E-1,9.836577415E0
5.130875900E-2,8.200141042E-2,2.495955229E-1,9.827000618E0
5.330698800E-2,7.242459804E-2,2.448071241E-1,9.822212219E0
5.530521700E-2,6.763619930E-2,2.352303118E-1,9.817423820E0
5.730344600E-2,6.284779310E-2,2.256535143E-1,9.798270226E0
5.930167500E-2,4.848258570E-2,2.064998895E-1,9.783905029E0
6.129990400E-2,5.805939063E-2,2.160767019E-1,9.769539833E0
6.329813400E-2,6.284779310E-2,1.969230920E-1,9.750386238E0
6.529636300E-2,7.721300423E-2,1.873462796E-1,9.736021042E0
6.729459200E-2,8.200141042E-2,1.873462796E-1,9.736021042E0
6.929282100E-2,8.200141042E-2,1.825578809E-1,9.726444244E0
7.129105000E-2,9.157821536E-2,1.777694821E-1,9.731232643E0
7.328927900E-2,8.678980917E-2,1.921346933E-1,9.716867447E0
7.528750900E-2,1.250970364E-1,1.777694821E-1,9.716867447E0
7.728573800E-2,1.011550203E-1,1.777694821E-1,9.712079048E0
7.928401900E-2,1.394622475E-1,1.825578809E-1,9.688137054E0
8.128230000E-2,9.157821536E-2,1.873462796E-1,9.712079048E0
8.328058100E-2,1.107318252E-1,1.873462796E-1,9.707290649E0
8.527886300E-2,1.059434265E-1,1.729810685E-1,9.707290649E0
8.727714400E-2,9.636662155E-2,1.921346933E-1,9.692925453E0
8.927542500E-2,8.200141042E-2,1.777694821E-1,9.683348656E0
9.127370600E-2,6.763619930E-2,1.969230920E-1,9.692925453E0
9.327198800E-2,5.805939063E-2,2.017114908E-1,9.688137054E0
9.527026900E-2,3.411737457E-2,1.921346933E-1,9.688137054E0
9.726855000E-2,5.386953708E-3,1.969230920E-1,9.664195061E0
9.926683100E-2,5.985504249E-4,2.064998895E-1,9.645041466E0
1.012651130E-1,-8.978256024E-3,1.969230920E-1,9.640253067E0
1.032633940E-1,5.386953708E-3,1.873462796E-1,9.640253067E0
1.052616750E-1,-1.855506375E-2,2.017114908E-1,9.630676270E0
1.072599560E-1,-2.334346622E-2,2.017114908E-1,9.645041466E0
1.092582380E-1,-4.189853091E-3,2.064998895E-1,9.654618263E0
1.112565190E-1,-1.855506375E-2,2.112883031E-1,9.673771858E0
1.132548520E-1,-1.376665942E-2,2.064998895E-1,9.668983459E0
1.152532380E-1,-1.376665942E-2,1.921346933E-1,9.692925453E0
1.172516750E-1,-8.978256024E-3,2.112883031E-1,9.712079048E0
1.192501650E-1,-4.189853091E-3,2.017114908E-1,9.702502251E0
1.212486540E-1,5.386953708E-3,2.112883031E-1,9.702502251E0
1.232471440E-1,5.386953708E-3,2.064998895E-1,9.697713852E0
1.252453730E-1,5.985504249E-4,2.064998895E-1,9.697713852E0
1.272436020E-1,-4.189853091E-3,2.160767019E-1,9.712079048E0
1.292417270E-1,-1.376665942E-2,2.160767019E-1,9.683348656E0
1.312398520E-1,-4.189853091E-3,2.208651006E-1,9.688137054E0
1.332379250E-1,3.411737457E-2,2.208651006E-1,9.678560257E0
1.352359980E-1,3.890577704E-2,2.256535143E-1,9.668983459E0
1.372340710E-1,4.848258570E-2,2.304419130E-1,9.683348656E0
1.392321440E-1,4.369417951E-2,2.256535143E-1,9.683348656E0
1.412302170E-1,6.284779310E-2,2.400187254E-1,9.707290649E0
1.432282900E-1,6.284779310E-2,2.304419130E-1,9.692925453E0
1.452263630E-1,8.200141042E-2,2.256535143E-1,9.683348656E0
1.472244360E-1,6.763619930E-2,2.304419130E-1,9.668983459E0
1.492225090E-1,8.200141042E-2,2.352303118E-1,9.673771858E0
1.512205810E-1,9.636662155E-2,2.448071241E-1,9.683348656E0
1.532186540E-1,7.242459804E-2,2.352303118E-1,9.688137054E0
1.552167270E-1,8.678980917E-2,2.400187254E-1,9.712079048E0
1.572148000E-1,9.636662155E-2,2.591723204E-1,9.721655846E0
1.592128730E-1,9.157821536E-2,2.543839216E-1,9.740809441E0
1.612109460E-1,9.157821536E-2,2.543839216E-1,9.759963036E0
1.632090190E-1,8.678980917E-2,2.400187254E-1,9.769539833E0
1.652071440E-1,9.157821536E-2,2.639607489E-1,9.769539833E0
1.672053210E-1,1.107318252E-1,2.495955229E-1,9.769539833E0
1.692035500E-1,1.107318252E-1,2.543839216E-1,9.779116631E0
1.712017790E-1,1.442506462E-1,2.448071241E-1,9.798270226E0
1.732000090E-1,1.490390599E-1,2.448071241E-1,9.812635422E0
1.751982380E-1,1.681926697E-1,2.448071241E-1,9.817423820E0
1.771964670E-1,1.681926697E-1,2.543839216E-1,9.822212219E0
1.791946960E-1,1.777694821E-1,2.495955229E-1,9.831789017E0
1.811929250E-1,1.873462796E-1,2.543839216E-1,9.836577415E0
1.831911540E-1,1.681926697E-1,2.495955229E-1,9.831789017E0
1.851893840E-1,1.729810685E-1,2.352303118E-1,9.783905029E0
1.871876130E-1,1.825578809E-1,2.352303118E-1,9.783905029E0
1.891858420E-1,1.394622475E-1,2.160767019E-1,9.764751434E0
1.911840710E-1,1.490390599E-1,2.112883031E-1,9.755174637E0
1.931823000E-1,1.298854351E-1,2.064998895E-1,9.736021042E0
1.951805290E-1,1.107318252E-1,2.256535143E-1,9.707290649E0
1.971787590E-1,1.011550203E-1,2.208651006E-1,9.688137054E0
1.991769880E-1,8.678980917E-2,2.352303118E-1,9.707290649E0
2.011750090E-1,4.369417951E-2,2.543839216E-1,9.688137054E0
2.031730290E-1,5.985504249E-4,3.070563674E-1,9.678560257E0
2.051710500E-1,-2.334346622E-2,3.836708367E-1,9.683348656E0
2.071690710E-1,-7.122749835E-2,5.177460909E-1,9.664195061E0
2.091670920E-1,-9.995792061E-2,6.183025837E-1,9.649829865E0
2.111651130E-1,-1.334767491E-1,6.949170232E-1,9.640253067E0
2.131631860E-1,-1.574187577E-1,7.380126715E-1,9.649829865E0
2.151613110E-1,-1.574187577E-1,7.715315223E-1,9.654618263E0
2.171594880E-1,-1.574187577E-1,7.523778677E-1,9.678560257E0
2.191577170E-1,-1.095347255E-1,7.188590765E-1,9.712079048E0
2.211559980E-1,-8.559270948E-2,6.949170232E-1,9.755174637E0
2.231543310E-1,-6.643909961E-2,6.757634282E-1,9.793481827E0
2.251527170E-1,-8.978256024E-3,6.183025837E-1,9.807847023E0
2.271511020E-1,2.932897024E-2,5.847837925E-1,9.874884605E0
2.291494880E-1,6.284779310E-2,5.560533404E-1,9.841365814E0
2.311478730E-1,9.636662155E-2,5.129576921E-1,9.850942612E0
2.331462590E-1,9.157821536E-2,5.081692934E-1,9.874884605E0
2.351446440E-1,1.059434265E-1,5.033808947E-1,9.822212219E0
2.371430290E-1,1.346738487E-1,4.938040972E-1,9.822212219E0
2.391414150E-1,1.442506462E-1,4.890156984E-1,9.827000618E0
2.411398000E-1,1.346738487E-1,4.890156984E-1,9.774328232E0
2.431381860E-1,1.442506462E-1,4.985924959E-1,9.769539833E0
2.451365710E-1,1.346738487E-1,4.794389009E-1,9.764751434E0
2.471349040E-1,1.250970364E-1,5.225345492E-1,9.759963036E0
2.491330290E-1,1.059434265E-1,5.129576921E-1,9.721655846E0
2.511311540E-1,1.107318252E-1,4.985924959E-1,9.712079048E0
2.531292790E-1,1.011550203E-1,4.650736749E-1,9.716867447E0
2.551274040E-1,1.059434265E-1,4.698620737E-1,9.702502251E0
2.571255290E-1,9.157821536E-2,4.842272997E-1,9.697713852E0
2.591236540E-1,6.763619930E-2,5.416881442E-1,9.707290649E0
2.611217790E-1,6.763619930E-2,5.704185367E-1,9.664195061E0
2.631197480E-1,4.848258570E-2,5.512649417E-1,9.625887871E0
2.651177170E-1,2.932897024E-2,5.656301379E-1,9.668983459E0
2.671156860E-1,1.975216344E-2,5.560533404E-1,9.668983459E0
2.691136540E-1,1.975216344E-2,5.656301379E-1,9.630676270E0
2.711116230E-1,3.890577704E-2,5.225345492E-1,9.664195061E0
2.731095920E-1,1.496376097E-2,5.560533404E-1,9.702502251E0
2.751075610E-1,5.985504249E-4,5.895721912E-1,9.750386238E0
2.771055290E-1,1.496376097E-2,6.374561787E-1,9.803058624E0
2.791034980E-1,-1.376665942E-2,6.757634282E-1,9.774328232E0
2.811014670E-1,-6.165069342E-2,7.236474752E-1,9.755174637E0
2.830994360E-1,-8.080431074E-2,7.428010702E-1,9.807847023E0
2.850974560E-1,-6.643909961E-2,7.523778677E-1,9.831789017E0
2.870954770E-1,-8.080431074E-2,7.858967185E-1,9.846154213E0
2.890935500E-1,-1.047463268E-1,7.811083198E-1,9.855731010E0
2.910916750E-1,-8.559270948E-2,8.002619147E-1,9.850942612E0
2.930898520E-1,-9.038111567E-2,7.619546652E-1,9.822212219E0
2.950880810E-1,-7.601590455E-2,7.954735160E-1,9.764751434E0
2.970863110E-1,-8.559270948E-2,7.954735160E-1,9.769539833E0
2.990845400E-1,-3.292027488E-2,8.146271110E-1,9.745597839E0
3.010827690E-1,5.985504249E-4,8.050503135E-1,9.740809441E0
3.030809980E-1,1.975216344E-2,7.858967185E-1,9.788693428E0
3.050792270E-1,2.932897024E-2,7.858967185E-1,9.889249802E0
3.070774560E-1,6.284779310E-2,8.194155097E-1,9.841365814E0
3.090757380E-1,3.411737457E-2,8.481459618E-1,9.817423820E0
3.110740710E-1,6.284779310E-2,8.529343605E-1,9.874884605E0
3.130724560E-1,5.805939063E-2,7.906851172E-1,9.894038200E0
3.150708940E-1,4.848258570E-2,7.954735160E-1,9.855731010E0
3.170693840E-1,5.805939063E-2,8.625111580E-1,9.702502251E0
3.190679250E-1,3.890577704E-2,8.720879555E-1,9.645041466E0
3.210664670E-1,3.890577704E-2,8.050503135E-1,9.721655846E0
3.230650090E-1,2.932897024E-2,7.763199210E-1,9.745597839E0
3.250635500E-1,1.496376097E-2,7.619546652E-1,9.606734276E0
3.270620920E-1,5.386953708E-3,6.853402257E-1,9.582792282E0
3.290605810E-1,-1.855506375E-2,6.853402257E-1,9.592369080E0
3.310587590E-1,2.454056777E-2,6.470330358E-1,9.558850288E0
3.330569360E-1,2.932897024E-2,6.039373875E-1,9.630676270E0
3.350551130E-1,3.411737457E-2,5.656301379E-1,9.692925453E0
3.370532900E-1,7.242459804E-2,5.608417392E-1,9.635464668E0
3.390514670E-1,7.721300423E-2,5.129576921E-1,9.645041466E0
3.410496440E-1,6.763619930E-2,5.129576921E-1,9.621099472E0
3.430478210E-1,3.411737457E-2,4.842272997E-1,9.606734276E0
3.450460500E-1,7.242459804E-2,5.081692934E-1,9.530119896E0
3.470442790E-1,6.284779310E-2,4.746504724E-1,9.491812706E0
3.490425610E-1,1.011550203E-1,4.076128304E-1,9.515754700E0
3.510408420E-1,9.157821536E-2,3.166331649E-1,9.683348656E0
3.530391230E-1,9.636662155E-2,2.879027426E-1,9.649829865E0
3.550374040E-1,9.157821536E-2,2.687491477E-1,9.645041466E0
3.570356860E-1,1.011550203E-1,2.208651006E-1,9.606734276E0
3.590339670E-1,1.059434265E-1,2.400187254E-1,9.515754700E0
3.610322480E-1,1.059434265E-1,2.304419130E-1,9.439140320E0
3.630305290E-1,8.200141042E-2,2.064998895E-1,9.472659111E0
3.650288110E-1,1.250970364E-1,2.017114908E-1,9.496601105E0
3.670270920E-1,1.298854351E-1,1.873462796E-1,9.554061890E0
3.690253730E-1,1.490390599E-1,1.490390599E-1,9.673771858E0
3.710236540E-1,1.586158574E-1,1.442506462E-1,9.755174637E0
3.730218310E-1,1.394622475E-1,1.634042710E-1,9.712079048E0
3.750199560E-1,1.729810685E-1,1.729810685E-1,9.755174637E0
3.770180810E-1,1.490390599E-1,2.064998895E-1,9.788693428E0
3.790162060E-1,1.634042710E-1,3.070563674E-1,9.779116631E0
3.810143310E-1,1.011550203E-1,3.740940094E-1,9.649829865E0
3.830124560E-1,9.157821536E-2,4.219780564E-1,9.673771858E0
3.850105810E-1,7.242459804E-2,4.554968774E-1,9.678560257E0
3.870087060E-1,9.157821536E-2,4.267664552E-1,9.716867447E0
3.890068310E-1,6.763619930E-2,4.890156984E-1,9.659406662E0
3.910049560E-1,9.636662155E-2,5.033808947E-1,9.630676270E0
3.930031340E-1,9.636662155E-2,5.225345492E-1,9.731232643E0
3.950013630E-1,1.155202314E-1,4.507084787E-1,9.745597839E0
3.969996440E-1,1.155202314E-1,4.411316514E-1,9.803058624E0
3.989979770E-1,1.155202314E-1,4.938040972E-1,9.827000618E0
4.009963110E-1,1.346738487E-1,5.464765429E-1,9.827000618E0
4.029946440E-1,1.298854351E-1,5.895721912E-1,9.736021042E0
4.049929770E-1,1.155202314E-1,5.656301379E-1,9.798270226E0
4.069913110E-1,1.442506462E-1,5.799953341E-1,9.764751434E0
4.089896440E-1,1.203086376E-1,5.560533404E-1,9.779116631E0
4.109879770E-1,1.490390599E-1,5.560533404E-1,9.803058624E0
4.129863110E-1,1.586158574E-1,5.608417392E-1,9.774328232E0
4.149846440E-1,1.346738487E-1,5.321113467E-1,9.783905029E0
4.169827170E-1,1.634042710E-1,4.985924959E-1,9.764751434E0
4.189807900E-1,1.107318252E-1,5.225345492E-1,9.716867447E0
4.209788630E-1,5.805939063E-2,4.938040972E-1,9.692925453E0
4.229769360E-1,8.200141042E-2,5.895721912E-1,9.606734276E0
4.249750090E-1,1.107318252E-1,5.656301379E-1,9.640253067E0
4.269730810E-1,9.636662155E-2,5.608417392E-1,9.736021042E0
4.289711540E-1,9.157821536E-2,5.656301379E-1,9.678560257E0
4.309692790E-1,7.721300423E-2,5.847837925E-1,9.707290649E0
4.329674560E-1,4.369417951E-2,5.656301379E-1,9.736021042E0
4.349656340E-1,8.200141042E-2,5.033808947E-1,9.889249802E0
4.369638630E-1,2.454056777E-2,5.033808947E-1,9.841365814E0
4.389621440E-1,1.975216344E-2,4.650736749E-1,9.774328232E0
4.409604770E-1,5.386953708E-3,5.273229480E-1,9.726444244E0
4.429588110E-1,5.386953708E-3,5.273229480E-1,9.645041466E0
4.449571440E-1,2.932897024E-2,5.656301379E-1,9.712079048E0
4.469555290E-1,4.848258570E-2,5.704185367E-1,9.759963036E0
4.489539670E-1,2.454056777E-2,5.129576921E-1,9.841365814E0
4.509524560E-1,1.975216344E-2,4.794389009E-1,9.846154213E0
4.529509460E-1,-2.813187055E-2,4.315548539E-1,9.894038200E0
4.549494360E-1,-6.643909961E-2,3.166331649E-1,1.001374817E1
4.569479250E-1,-4.728548229E-2,4.171896577E-1,9.894038200E0
4.589464150E-1,-2.334346622E-2,4.459200799E-1,9.769539833E0
4.609449040E-1,-9.516951442E-2,3.884592354E-1,9.783905029E0
4.629433940E-1,-1.095347255E-1,3.262099922E-1,9.879673004E0
4.649418840E-1,-9.038111567E-2,2.926911712E-1,9.889249802E0
4.669403730E-1,-1.047463268E-1,2.591723204E-1,9.827000618E0
4.689388630E-1,-6.165069342E-2,2.591723204E-1,9.755174637E0
4.709373520E-1,-4.249707982E-2,2.831143439E-1,9.702502251E0
4.729358420E-1,-4.728548229E-2,1.825578809E-1,9.841365814E0
4.749343310E-1,-8.559270948E-2,1.825578809E-1,9.788693428E0
4.769327690E-1,-1.376665942E-2,2.112883031E-1,9.678560257E0
4.789311020E-1,-1.376665942E-2,2.974795699E-1,9.510966301E0
4.809294360E-1,-4.249707982E-2,2.256535143E-1,9.668983459E0
4.829277690E-1,-8.559270948E-2,1.394622475E-1,9.774328232E0
4.849261020E-1,-4.249707982E-2,1.394622475E-1,9.817423820E0
4.869244360E-1,2.454056777E-2,1.777694821E-1,9.750386238E0
4.889227690E-1,4.848258570E-2,2.112883031E-1,9.578003883E0
4.909211020E-1,6.284779310E-2,2.112883031E-1,9.534908295E0
4.929194360E-1,3.890577704E-2,1.777694821E-1,9.578003883E0
4.949177690E-1,6.284779310E-2,1.442506462E-1,9.611522675E0
4.969161020E-1,8.678980917E-2,1.250970364E-1,9.692925453E0
4.989144360E-1,1.107318252E-1,1.873462796E-1,9.702502251E0
5.009127690E-1,1.059434265E-1,1.586158574E-1,9.716867447E0
5.029111020E-1,1.298854351E-1,1.346738487E-1,9.721655846E0
5.049092790E-1,1.346738487E-1,1.250970364E-1,9.736021042E0
5.069074560E-1,1.490390599E-1,6.763619930E-2,9.726444244E0
5.089056340E-1,1.298854351E-1,9.157821536E-2,9.673771858E0
5.109038110E-1,5.805939063E-2,9.636662155E-2,9.611522675E0
5.129019880E-1,5.386953708E-3,1.825578809E-1,9.491812706E0
5.149001650E-1,-5.686229095E-2,1.490390599E-1,9.439140320E0
5.168983420E-1,-1.095347255E-1,1.394622475E-1,9.362525940E0
5.188965190E-1,-1.286883354E-1,1.107318252E-1,9.611522675E0
5.208946960E-1,-9.516951442E-2,1.250970364E-1,9.697713852E0
5.228928730E-1,-9.516951442E-2,1.490390599E-1,9.692925453E0
5.248910500E-1,-1.238999367E-1,1.298854351E-1,9.745597839E0
5.268892790E-1,-1.430535465E-1,1.107318252E-1,9.759963036E0
5.288875610E-1,-1.574187577E-1,5.327098817E-2,9.817423820E0
5.308858940E-1,-1.765723825E-1,1.975216344E-2,9.850942612E0
5.328842790E-1,-1.957259923E-1,1.538274586E-1,9.625887871E0
5.348827170E-1,-2.292448133E-1,1.681926697E-1,9.491812706E0
5.368812060E-1,-2.340332121E-1,1.155202314E-1,9.501389503E0
5.388796960E-1,-2.579752207E-1,1.442506462E-1,9.592369080E0
5.408781860E-1,-2.531868219E-1,1.490390599E-1,9.611522675E0
5.428766750E-1,-2.100912035E-1,1.729810685E-1,9.611522675E0
5.448751650E-1,-1.622071713E-1,2.400187254E-1,9.477447510E0
5.468736540E-1,-1.765723825E-1,2.926911712E-1,9.415198326E0
5.488721440E-1,-1.526303589E-1,3.166331649E-1,9.429563522E0
5.508706340E-1,-9.995792061E-2,3.118447661E-1,9.448717117E0
5.528688110E-1,-8.080431074E-2,2.495955229E-1,9.692925453E0
5.548669880E-1,-5.207388848E-2,2.352303118E-1,9.884461403E0
5.568651650E-1,-7.601590455E-2,2.304419130E-1,9.927556992E0
5.588633420E-1,-5.207388848E-2,2.879027426E-1,9.831789017E0
5.608615190E-1,-6.643909961E-2,3.453635871E-1,9.716867447E0
5.628596960E-1,-5.686229095E-2,3.740940094E-1,9.625887871E0
5.648578730E-1,-3.292027488E-2,3.932476342E-1,9.534908295E0
5.668560500E-1,-1.855506375E-2,3.693056107E-1,9.510966301E0
5.688542270E-1,-2.334346622E-2,3.693056107E-1,9.683348656E0
5.708524560E-1,3.890577704E-2,3.501519859E-1,9.745597839E0
5.728507380E-1,6.284779310E-2,3.788824081E-1,9.783905029E0
5.748490710E-1,1.107318252E-1,4.124012291E-1,9.779116631E0
5.768474560E-1,8.200141042E-2,4.459200799E-1,9.664195061E0
5.788458940E-1,1.496376097E-2,3.693056107E-1,9.635464668E0
5.808443840E-1,5.386953708E-3,4.124012291E-1,9.731232643E0
5.828429250E-1,3.411737457E-2,3.070563674E-1,9.927556992E0
5.848414670E-1,8.200141042E-2,1.394622475E-1,1.023880386E1
5.868400090E-1,3.890577704E-2,-4.189853091E-3,1.046385860E1
5.888385500E-1,6.763619930E-2,-1.143231317E-1,1.054526138E1
5.908370920E-1,-1.095347255E-1,6.763619930E-2,9.783905029E0
5.928356340E-1,-1.669955701E-1,2.687491477E-1,9.731232643E0
5.948341750E-1,-2.627636492E-1,4.171896577E-1,9.850942612E0
5.968327170E-1,-2.771288455E-1,4.698620737E-1,9.803058624E0
5.988312590E-1,-3.633201122E-1,5.560533404E-1,9.836577415E0
6.008296960E-1,-2.196680009E-1,5.752069354E-1,9.927556992E0
6.028280290E-1,-1.286883354E-1,5.225345492E-1,9.846154213E0
6.048263630E-1,-2.388216257E-1,6.566098332E-1,9.578003883E0
6.068246440E-1,-2.292448133E-1,7.523778677E-1,9.439140320E0
6.088229250E-1,-1.430535465E-1,6.949170232E-1,9.419986725E0
6.108212060E-1,-9.038111567E-2,5.704185367E-1,9.549273491E0
6.128194880E-1,2.932897024E-2,4.602852762E-1,9.736021042E0
6.148177690E-1,-3.292027488E-2,5.081692934E-1,9.779116631E0
6.168160500E-1,-3.292027488E-2,5.991489887E-1,9.692925453E0
6.188143310E-1,1.017535757E-2,6.039373875E-1,9.621099472E0
6.208126130E-1,2.454056777E-2,5.895721912E-1,9.578003883E0
6.228108940E-1,-2.813187055E-2,5.416881442E-1,9.463082314E0
6.248091750E-1,2.454056777E-2,4.938040972E-1,9.578003883E0
6.268074560E-1,1.346738487E-1,3.932476342E-1,9.783905029E0
6.288057380E-1,2.064998895E-1,4.124012291E-1,9.965864182E0
6.308040190E-1,1.825578809E-1,4.554968774E-1,9.788693428E0
6.328023000E-1,1.203086376E-1,5.464765429E-1,9.563638687E0
6.348005810E-1,7.721300423E-2,5.895721912E-1,9.654618263E0
6.367988630E-1,9.636662155E-2,6.230909824E-1,9.740809441E0
6.387971440E-1,9.157821536E-2,6.087257862E-1,9.788693428E0
6.407954250E-1,1.969230920E-1,6.613982320E-1,9.841365814E0
6.427937590E-1,2.448071241E-1,6.135141850E-1,9.759963036E0
6.447921440E-1,1.586158574E-1,6.949170232E-1,9.697713852E0
6.467905810E-1,1.681926697E-1,6.566098332E-1,9.736021042E0
6.487890710E-1,1.681926697E-1,5.847837925E-1,9.836577415E0
6.507876130E-1,-1.855506375E-2,5.895721912E-1,9.860519409E0
6.527862060E-1,-6.165069342E-2,3.836708367E-1,9.956287384E0
6.547848000E-1,-1.861491799E-1,5.081692934E-1,1.019091988E1
6.567833940E-1,-2.914940715E-1,8.050503135E-1,1.021965027E1
6.587819880E-1,-3.106476665E-1,9.103952050E-1,1.005684471E1
6.607805810E-1,-3.681085110E-1,8.768763542E-1,9.779116631E0
6.627791750E-1,-3.920505345E-1,8.672995567E-1,9.649829865E0
6.647777690E-1,-4.064157307E-1,7.811083198E-1,9.702502251E0
6.667763630E-1,-4.351461530E-1,9.295488000E-1,9.640253067E0
6.687749560E-1,-3.681085110E-1,9.822212458E-1,9.487024307E0
6.707735500E-1,-3.537433147E-1,9.822212458E-1,9.415198326E0
6.727721440E-1,-3.393780887E-1,9.439139962E-1,9.362525940E0
6.747707380E-1,-3.250128925E-1,1.015740037E0,9.563638687E0
6.767690190E-1,-3.537433147E-1,9.822212458E-1,9.726444244E0
6.787673000E-1,-3.106476665E-1,9.199720025E-1,9.779116631E0
6.807655810E-1,-2.292448133E-1,8.146271110E-1,9.807847023E0
6.827638630E-1,-9.038111567E-2,7.523778677E-1,9.913191795E0
6.847621440E-1,-8.080431074E-2,6.374561787E-1,9.994594574E0
6.867604250E-1,5.386953708E-3,6.374561787E-1,1.002811337E1
6.887587590E-1,5.327098817E-2,5.560533404E-1,9.874884605E0
6.907571440E-1,4.848258570E-2,5.129576921E-1,9.812635422E0
6.927555810E-1,9.636662155E-2,4.650736749E-1,9.692925453E0
6.947540710E-1,1.873462796E-1,4.411316514E-1,9.525331497E0
6.967526130E-1,1.825578809E-1,2.831143439E-1,9.539696693E0
6.987512060E-1,2.400187254E-1,2.687491477E-1,9.587580681E0
7.007498520E-1,2.591723204E-1,3.022679687E-1,9.582792282E0
7.027485500E-1,3.309983909E-1,2.591723204E-1,9.544485092E0
7.047472480E-1,3.597288132E-1,2.017114908E-1,9.558850288E0
7.067459460E-1,3.740940094E-1,1.346738487E-1,9.601945877E0
7.087446440E-1,4.076128304E-1,1.634042710E-1,9.673771858E0
7.107431340E-1,4.698620737E-1,1.825578809E-1,9.582792282E0
7.127413630E-1,4.698620737E-1,1.538274586E-1,9.448717117E0
7.147395920E-1,4.267664552E-1,1.155202314E-1,9.439140320E0
7.167378210E-1,3.884592354E-1,1.346738487E-1,9.525331497E0
7.187360500E-1,4.124012291E-1,1.394622475E-1,9.625887871E0
7.207342790E-1,3.549404144E-1,2.017114908E-1,9.606734276E0
7.227325090E-1,3.884592354E-1,2.448071241E-1,9.482235909E0
7.247307380E-1,3.788824081E-1,1.538274586E-1,9.506177902E0
7.267289670E-1,3.166331649E-1,5.805939063E-2,9.865307808E0
7.287271960E-1,2.735375464E-1,1.346738487E-1,1.004247856E1
7.307254770E-1,1.586158574E-1,2.017114908E-1,9.922768593E0
7.327238110E-1,1.011550203E-1,2.017114908E-1,9.941922188E0
7.347221960E-1,3.411737457E-2,1.825578809E-1,1.003769016E1
7.367206340E-1,-6.643909961E-2,1.394622475E-1,1.015261269E1
7.387191230E-1,-1.047463268E-1,2.543839216E-1,1.015740108E1
7.407176650E-1,-1.143231317E-1,3.932476342E-1,9.879673004E0
7.427162590E-1,-1.813607812E-1,4.650736749E-1,9.530119896E0
7.447149040E-1,-2.675520480E-1,4.794389009E-1,9.424775124E0
7.467135500E-1,-2.483984232E-1,5.560533404E-1,9.482235909E0
7.487121960E-1,-2.388216257E-1,5.560533404E-1,9.621099472E0
7.507108420E-1,-2.005143911E-1,6.470330358E-1,9.645041466E0
7.527094880E-1,-1.526303589E-1,7.428010702E-1,9.554061890E0
7.547081340E-1,-1.669955701E-1,7.667431235E-1,9.501389503E0
7.567067790E-1,-2.483984232E-1,6.805518270E-1,9.477447510E0
7.587054250E-1,-1.622071713E-1,6.135141850E-1,9.736021042E0
7.607038630E-1,-2.148796022E-1,6.566098332E-1,9.683348656E0
7.627021440E-1,-2.340332121E-1,7.092822790E-1,9.554061890E0
7.647003730E-1,-2.531868219E-1,6.470330358E-1,9.443928719E0
7.666984980E-1,-1.143231317E-1,5.560533404E-1,9.415198326E0
7.686966230E-1,-1.382651478E-1,5.943605900E-1,9.319430351E0
7.706947480E-1,-1.669955701E-1,6.422445774E-1,9.578003883E0
7.726928730E-1,-1.909375787E-1,4.985924959E-1,1.000417137E1
7.746909980E-1,-1.717839688E-1,2.591723204E-1,1.054047298E1
7.766891750E-1,-1.047463268E-1,1.777694821E-1,1.065060616E1
7.786874040E-1,1.975216344E-2,1.490390599E-1,1.041597462E1
7.806856860E-1,-5.686229095E-2,1.442506462E-1,1.007599831E1
7.826840190E-1,-2.813187055E-2,5.805939063E-2,9.774328232E0
7.846824040E-1,-5.207388848E-2,1.017535757E-2,9.439140320E0
7.866808420E-1,-1.376665942E-2,5.386953708E-3,9.367314339E0
7.886793310E-1,1.017535757E-2,-1.855506375E-2,9.592369080E0
7.906778730E-1,1.250970364E-1,-2.531868219E-1,9.889249802E0
7.926764670E-1,6.763619930E-2,-5.452794433E-1,1.018613148E1
7.946750610E-1,9.157821536E-2,-4.303577542E-1,1.018613148E1
7.966736540E-1,1.442506462E-1,-2.675520480E-1,9.956287384E0
7.986722480E-1,1.155202314E-1,-1.238999367E-1,9.678560257E0
8.006708420E-1,1.107318252E-1,5.386953708E-3,9.400833130E0
8.026694360E-1,1.394622475E-1,-1.286883354E-1,9.630676270E0
8.046676650E-1,8.678980917E-2,-8.080431074E-2,9.759963036E0
8.066658940E-1,1.059434265E-1,1.777694821E-1,9.592369080E0
8.086641230E-1,9.636662155E-2,2.974795699E-1,9.472659111E0
8.106623520E-1,3.890577704E-2,2.448071241E-1,9.410409927E0
8.126605810E-1,5.386953708E-3,2.400187254E-1,9.601945877E0
8.146588110E-1,2.932897024E-2,3.022679687E-1,9.755174637E0
8.166570400E-1,3.890577704E-2,3.740940094E-1,9.793481827E0
8.186552690E-1,7.721300423E-2,2.831143439E-1,9.846154213E0
8.206534980E-1,9.636662155E-2,1.681926697E-1,9.865307808E0
8.226517270E-1,9.157821536E-2,2.256535143E-1,9.822212219E0
8.246500090E-1,9.636662155E-2,3.501519859E-1,9.697713852E0
8.266483420E-1,1.155202314E-1,3.453635871E-1,9.817423820E0
8.286467270E-1,1.298854351E-1,3.022679687E-1,9.917980194E0
8.306451130E-1,1.107318252E-1,2.639607489E-1,9.961075783E0
8.326434980E-1,3.411737457E-2,1.921346933E-1,9.946710587E0
8.346418840E-1,2.932897024E-2,2.783259451E-1,9.759963036E0
8.366402690E-1,6.284779310E-2,3.980360329E-1,9.625887871E0
8.386386540E-1,7.242459804E-2,3.549404144E-1,9.487024307E0
8.406370400E-1,-4.189853091E-3,2.735375464E-1,9.396044731E0
8.426352170E-1,1.496376097E-2,2.687491477E-1,9.573215485E0
8.446333940E-1,5.386953708E-3,2.591723204E-1,9.520543098E0
8.466313110E-1,-1.376665942E-2,2.543839216E-1,9.654618263E0
8.486292270E-1,5.985504249E-4,1.729810685E-1,9.798270226E0
8.506271440E-1,5.386953708E-3,1.017535757E-2,9.841365814E0
8.526250610E-1,6.284779310E-2,-8.559270948E-2,1.003769016E1
8.546229770E-1,8.200141042E-2,-5.207388848E-2,9.946710587E0
8.566208940E-1,5.805939063E-2,-3.770867735E-2,9.640253067E0
8.586188110E-1,7.721300423E-2,-4.249707982E-2,9.592369080E0
8.606167790E-1,1.011550203E-1,-1.574187577E-1,9.783905029E0
8.626148000E-1,1.059434265E-1,-2.531868219E-1,9.985017776E0
8.646128730E-1,8.678980917E-2,-1.238999367E-1,9.750386238E0
8.666109980E-1,5.805939063E-2,1.975216344E-2,9.443928719E0
8.686091750E-1,2.932897024E-2,-2.334346622E-2,9.343372345E0
8.706074040E-1,5.327098817E-2,-1.765723825E-1,9.534908295E0
8.726056860E-1,1.011550203E-1,-3.154360652E-1,9.985017776E0
8.746040190E-1,9.636662155E-2,-1.717839688E-1,1.019091988E1
8.766023520E-1,1.394622475E-1,-4.728548229E-2,9.903614998E0
8.786006860E-1,1.681926697E-1,5.985504249E-4,9.582792282E0
8.805990190E-1,1.729810685E-1,-4.728548229E-2,9.530119896E0
8.825973520E-1,9.636662155E-2,-3.292027488E-2,9.534908295E0
8.845956860E-1,9.157821536E-2,-8.978256024E-3,9.463082314E0
8.865939150E-1,1.250970364E-1,8.678980917E-2,9.568427086E0
8.885920400E-1,1.298854351E-1,5.805939063E-2,9.659406662E0
8.905901650E-1,1.634042710E-1,-3.770867735E-2,9.879673004E0
8.925882900E-1,2.208651006E-1,-1.622071713E-1,1.019570827E1
8.945864150E-1,2.064998895E-1,-2.813187055E-2,9.980229378E0
8.965845400E-1,1.873462796E-1,1.729810685E-1,9.616311073E0
8.985826650E-1,2.400187254E-1,1.729810685E-1,9.491812706E0
9.005807900E-1,2.160767019E-1,4.848258570E-2,9.597157478E0
9.025789150E-1,1.873462796E-1,2.454056777E-2,9.812635422E0
9.045770400E-1,2.448071241E-1,3.411737457E-2,9.884461403E0
9.065752170E-1,2.543839216E-1,8.678980917E-2,9.630676270E0
9.085734460E-1,2.208651006E-1,5.386953708E-3,9.616311073E0
9.105717270E-1,1.729810685E-1,-1.191115379E-1,9.913191795E0
9.125700610E-1,1.729810685E-1,-9.995792061E-2,1.003769016E1
9.145683940E-1,9.157821536E-2,-1.376665942E-2,9.625887871E0
9.165667270E-1,3.411737457E-2,6.763619930E-2,9.405621529E0
9.185650610E-1,4.369417951E-2,6.284779310E-2,9.558850288E0
9.205633940E-1,2.932897024E-2,8.200141042E-2,9.740809441E0
9.225617270E-1,3.411737457E-2,2.932897024E-2,9.774328232E0
9.245600610E-1,1.017535757E-2,6.284779310E-2,9.582792282E0
9.265583940E-1,5.386953708E-3,5.386953708E-3,9.692925453E0
9.285567270E-1,8.678980917E-2,-4.249707982E-2,9.927556992E0
9.305550610E-1,5.805939063E-2,-7.122749835E-2,9.965864182E0
9.325533940E-1,4.369417951E-2,-1.376665942E-2,9.803058624E0
9.345517270E-1,1.975216344E-2,1.442506462E-1,9.601945877E0
9.365500610E-1,5.327098817E-2,2.112883031E-1,9.429563522E0
9.385483940E-1,4.848258570E-2,1.298854351E-1,9.621099472E0
9.405467270E-1,4.369417951E-2,5.327098817E-2,9.908403397E0
9.425450610E-1,6.763619930E-2,7.721300423E-2,9.980229378E0
9.445433940E-1,1.011550203E-1,2.256535143E-1,9.769539833E0
9.465417270E-1,1.298854351E-1,2.448071241E-1,9.530119896E0
9.485400610E-1,9.636662155E-2,2.495955229E-1,9.587580681E0
9.505383940E-1,1.011550203E-1,2.495955229E-1,9.736021042E0
9.525367270E-1,1.250970364E-1,1.490390599E-1,9.855731010E0
9.545350610E-1,1.681926697E-1,1.538274586E-1,1.000417137E1
9.565333940E-1,2.112883031E-1,2.879027426E-1,9.822212219E0
9.585317270E-1,2.017114908E-1,3.788824081E-1,9.491812706E0
9.605300610E-1,1.873462796E-1,3.549404144E-1,9.467870712E0
9.625283940E-1,2.256535143E-1,2.304419130E-1,9.597157478E0
9.645267790E-1,2.160767019E-1,1.155202314E-1,1.003290176E1
9.665251650E-1,2.400187254E-1,1.681926697E-1,9.970652580E0
9.685236020E-1,2.064998895E-1,2.639607489E-1,9.688137054E0
9.705220400E-1,2.687491477E-1,3.309983909E-1,9.501389503E0
9.725204770E-1,2.926911712E-1,3.645172119E-1,9.554061890E0
9.745189150E-1,2.256535143E-1,2.591723204E-1,9.692925453E0
9.765173520E-1,1.586158574E-1,1.921346933E-1,9.975440979E0
9.785157900E-1,1.203086376E-1,2.304419130E-1,9.898826599E0
9.805142270E-1,6.284779310E-2,1.873462796E-1,9.688137054E0
9.825126650E-1,4.848258570E-2,2.256535143E-1,9.774328232E0
9.845111020E-1,1.011550203E-1,2.735375464E-1,9.621099472E0
9.865095400E-1,1.975216344E-2,2.160767019E-1,9.415198326E0
9.885079770E-1,-1.376665942E-2,1.873462796E-1,9.688137054E0
9.905064150E-1,1.975216344E-2,6.284779310E-2,1.003769016E1
9.925048520E-1,-8.978256024E-3,5.327098817E-2,9.774328232E0
9.945032900E-1,-4.728548229E-2,1.681926697E-1,9.678560257E0
9.965017270E-1,1.496376097E-2,2.304419130E-1,9.659406662E0
9.985001650E-1,7.721300423E-2,1.681926697E-1,9.410409927E0
1.000498602E0,9.636662155E-2,1.346738487E-1,9.759963036E0
1.002497040E0,-4.189853091E-3,1.442506462E-1,9.961075783E0
1.004495477E0,-2.334346622E-2,2.352303118E-1,9.707290649E0
1.006493915E0,5.386953708E-3,2.639607489E-1,9.573215485E0
1.008492352E0,5.985504249E-4,2.352303118E-1,9.530119896E0
1.010490790E0,-6.643909961E-2,1.442506462E-1,9.649829865E0
1.012489227E0,-2.334346622E-2,1.442506462E-1,9.917980194E0
1.014487665E0,-3.770867735E-2,1.634042710E-1,9.788693428E0
1.016486102E0,1.017535757E-2,2.208651006E-1,9.788693428E0
1.018484540E0,6.284779310E-2,2.591723204E-1,9.865307808E0
1.020482977E0,6.284779310E-2,2.400187254E-1,9.736021042E0
1.022481415E0,2.454056777E-2,2.256535143E-1,9.721655846E0
1.024479852E0,5.805939063E-2,2.064998895E-1,9.889249802E0
1.026478290E0,1.059434265E-1,3.022679687E-1,9.798270226E0
1.028476727E0,1.681926697E-1,4.076128304E-1,9.640253067E0
1.030475165E0,1.394622475E-1,3.980360329E-1,9.578003883E0
1.032473654E0,1.586158574E-1,3.549404144E-1,9.688137054E0
1.034472196E0,1.681926697E-1,3.501519859E-1,9.625887871E0
1.036470790E0,1.586158574E-1,2.974795699E-1,9.592369080E0
1.038469436E0,1.011550203E-1,1.777694821E-1,9.879673004E0
1.040468081E0,1.059434265E-1,1.969230920E-1,9.807847023E0
1.042466727E0,9.157821536E-2,3.597288132E-1,9.659406662E0
1.044465425E0,5.327098817E-2,4.602852762E-1,9.515754700E0
1.046464123E0,5.386953708E-3,4.746504724E-1,9.391256332E0
1.048462821E0,6.284779310E-2,3.022679687E-1,9.683348656E0
1.050461519E0,5.327098817E-2,1.921346933E-1,1.000417137E1
1.052460113E0,-4.189853091E-3,1.969230920E-1,9.951498985E0
1.054458446E0,5.386953708E-3,2.543839216E-1,9.860519409E0
1.056456779E0,-3.292027488E-2,3.022679687E-1,9.678560257E0
1.058455113E0,-3.292027488E-2,3.549404144E-1,9.654618263E0
1.060453446E0,-1.286883354E-1,2.687491477E-1,9.621099472E0
1.062451779E0,-1.813607812E-1,1.873462796E-1,9.659406662E0
1.064450113E0,-3.298012912E-1,7.242459804E-2,1.014303589E1
1.066448446E0,-2.531868219E-1,1.634042710E-1,1.005205631E1
1.068446779E0,-2.771288455E-1,3.166331649E-1,9.491812706E0
1.070445113E0,-3.298012912E-1,2.687491477E-1,9.372102737E0
1.072443446E0,-3.106476665E-1,1.729810685E-1,9.496601105E0
1.074441779E0,-3.010708690E-1,1.496376097E-2,9.774328232E0
1.076440113E0,-1.861491799E-1,-6.165069342E-2,9.927556992E0
1.078438446E0,-1.717839688E-1,1.975216344E-2,9.894038200E0
1.080436779E0,-1.669955701E-1,4.848258570E-2,9.745597839E0
1.082435113E0,-2.196680009E-1,8.678980917E-2,9.530119896E0
1.084433446E0,-1.382651478E-1,1.107318252E-1,9.683348656E0
1.086431779E0,-1.286883354E-1,8.200141042E-2,9.769539833E0
1.088430113E0,-7.601590455E-2,1.155202314E-1,9.803058624E0
1.090428446E0,-1.382651478E-1,1.442506462E-1,9.654618263E0
1.092426779E0,-1.238999367E-1,1.250970364E-1,9.874884605E0
1.094425113E0,-9.995792061E-2,1.873462796E-1,9.668983459E0
1.096423446E0,-5.207388848E-2,2.495955229E-1,9.635464668E0
1.098421779E0,-6.165069342E-2,2.448071241E-1,9.510966301E0
1.100420165E0,-4.189853091E-3,2.304419130E-1,9.783905029E0
1.102418602E0,5.327098817E-2,2.208651006E-1,9.855731010E0
1.104417092E0,-3.292027488E-2,2.783259451E-1,9.606734276E0
1.106415581E0,-4.189853091E-3,2.304419130E-1,9.764751434E0
1.108414071E0,-3.770867735E-2,1.729810685E-1,9.668983459E0
1.110412561E0,-4.189853091E-3,1.155202314E-1,9.812635422E0
1.112411050E0,-1.376665942E-2,1.442506462E-1,9.879673004E0
1.114409540E0,-4.249707982E-2,2.256535143E-1,9.721655846E0
1.116408029E0,-8.978256024E-3,2.735375464E-1,9.649829865E0
1.118406519E0,5.386953708E-3,2.974795699E-1,9.625887871E0
1.120405009E0,-1.855506375E-2,1.921346933E-1,9.946710587E0
1.122403498E0,-8.080431074E-2,-2.334346622E-2,9.841365814E0
1.124401988E0,-8.559270948E-2,2.352303118E-1,9.822212219E0
1.126400477E0,-3.770867735E-2,4.459200799E-1,9.333795547E0
1.128398967E0,5.985504249E-4,4.650736749E-1,9.563638687E0
1.130397456E0,-7.601590455E-2,3.214215636E-1,9.712079048E0
1.132395946E0,-1.095347255E-1,2.112883031E-1,1.003769016E1
1.134394436E0,-1.430535465E-1,1.921346933E-1,9.798270226E0
1.136392925E0,-9.995792061E-2,2.160767019E-1,9.755174637E0
1.138391415E0,-1.430535465E-1,2.256535143E-1,9.477447510E0
1.140389904E0,-9.995792061E-2,1.490390599E-1,9.654618263E0
1.142388394E0,-9.038111567E-2,1.011550203E-1,9.769539833E0
1.144386831E0,1.017535757E-2,1.729810685E-1,9.788693428E0
1.146385269E0,1.496376097E-2,1.825578809E-1,9.592369080E0
1.148383706E0,6.763619930E-2,1.203086376E-1,9.664195061E0
1.150381936E0,3.890577704E-2,5.805939063E-2,9.779116631E0
1.152380165E0,5.327098817E-2,9.157821536E-2,9.716867447E0
1.154378394E0,-1.855506375E-2,1.586158574E-1,9.774328232E0
1.156376623E0,-8.080431074E-2,1.681926697E-1,9.908403397E0
1.158374852E0,-4.249707982E-2,1.873462796E-1,9.736021042E0
1.160373081E0,-1.376665942E-2,2.256535143E-1,9.645041466E0
1.162371311E0,-1.855506375E-2,2.208651006E-1,9.616311073E0
1.164369540E0,-3.770867735E-2,3.070563674E-1,9.491812706E0
1.166367769E0,-2.813187055E-2,3.070563674E-1,9.544485092E0
1.168365998E0,-8.080431074E-2,2.256535143E-1,9.788693428E0
1.170364227E0,-2.813187055E-2,1.969230920E-1,9.913191795E0
1.172362456E0,-3.292027488E-2,2.926911712E-1,9.779116631E0
1.174360686E0,-4.249707982E-2,3.309983909E-1,9.463082314E0
1.176358915E0,-8.978256024E-3,2.400187254E-1,9.688137054E0
1.178357144E0,5.386953708E-3,1.496376097E-2,9.941922188E0
1.180355425E0,-2.334346622E-2,-8.080431074E-2,1.025316906E1
1.182353759E0,-4.189853091E-3,2.448071241E-1,9.668983459E0
1.184352144E0,5.805939063E-2,4.650736749E-1,9.467870712E0
1.186350581E0,-1.376665942E-2,7.428010702E-1,9.233239174E0
1.188349071E0,-7.601590455E-2,6.183025837E-1,9.348160744E0
1.190347613E0,-1.717839688E-1,3.980360329E-1,9.793481827E0
1.192346206E0,-4.728548229E-2,2.400187254E-1,1.019570827E1
1.194344852E0,-4.249707982E-2,3.022679687E-1,9.946710587E0
1.196343498E0,-2.813187055E-2,5.273229480E-1,9.587580681E0
1.198342144E0,5.386953708E-3,4.746504724E-1,9.487024307E0
1.200340790E0,1.496376097E-2,4.554968774E-1,9.554061890E0
1.202339436E0,1.017535757E-2,4.985924959E-1,9.712079048E0
1.204338081E0,7.721300423E-2,4.124012291E-1,9.860519409E0
1.206336727E0,7.242459804E-2,4.028244317E-1,1.005205631E1
1.208335217E0,1.975216344E-2,4.363432527E-1,9.970652580E0
1.210333706E0,7.242459804E-2,5.847837925E-1,9.554061890E0
1.212332196E0,5.805939063E-2,7.236474752E-1,9.376891136E0
1.214330581E0,7.242459804E-2,5.656301379E-1,9.477447510E0
1.216328915E0,1.250970364E-1,3.740940094E-1,9.850942612E0
1.218327248E0,1.394622475E-1,3.693056107E-1,1.007120991E1
1.220325581E0,1.921346933E-1,5.416881442E-1,9.587580681E0
1.222323915E0,2.495955229E-1,4.842272997E-1,9.635464668E0
1.224322248E0,2.591723204E-1,3.932476342E-1,9.745597839E0
1.226320581E0,2.639607489E-1,4.219780564E-1,9.827000618E0
1.228318915E0,3.214215636E-1,4.650736749E-1,9.774328232E0
1.230317248E0,3.549404144E-1,5.512649417E-1,9.678560257E0
1.232315581E0,3.453635871E-1,5.656301379E-1,9.702502251E0
1.234313915E0,3.501519859E-1,6.278793812E-1,9.654618263E0
1.236312248E0,2.687491477E-1,6.422445774E-1,9.649829865E0
1.238310529E0,2.783259451E-1,5.416881442E-1,9.913191795E0
1.240308654E0,1.921346933E-1,4.650736749E-1,1.010951710E1
1.242306779E0,8.200141042E-2,4.363432527E-1,1.006163311E1
1.244304904E0,6.284779310E-2,6.949170232E-1,9.410409927E0
1.246303029E0,8.200141042E-2,6.613982320E-1,9.372102737E0
1.248301154E0,-9.995792061E-2,5.273229480E-1,9.410409927E0
1.250299279E0,-1.574187577E-1,4.171896577E-1,9.702502251E0
1.252297404E0,-1.191115379E-1,3.166331649E-1,9.884461403E0
1.254295529E0,-1.957259923E-1,2.831143439E-1,9.841365814E0
1.256293706E0,-2.483984232E-1,2.735375464E-1,9.606734276E0
1.258291936E0,-3.058592677E-1,2.591723204E-1,9.606734276E0
1.260290217E0,-2.771288455E-1,1.203086376E-1,9.999382973E0
1.262288550E0,-2.627636492E-1,1.107318252E-1,1.020528507E1
1.264286936E0,-3.441664875E-1,2.064998895E-1,9.841365814E0
1.266285321E0,-3.872621357E-1,3.405751884E-1,9.630676270E0
1.268283706E0,-4.064157307E-1,2.926911712E-1,9.348160744E0
1.270282092E0,-2.819172442E-1,1.729810685E-1,9.319430351E0
1.272280477E0,-3.154360652E-1,7.242459804E-2,1.002811337E1
1.274278863E0,-3.058592677E-1,1.442506462E-1,9.745597839E0
1.276277248E0,-3.010708690E-1,1.921346933E-1,9.649829865E0
1.278275634E0,-2.914940715E-1,5.327098817E-2,9.750386238E0
1.280274019E0,-1.669955701E-1,-3.292027488E-2,9.616311073E0
1.282272404E0,-9.516951442E-2,-5.686229095E-2,9.836577415E0
1.284270790E0,-6.165069342E-2,-4.249707982E-2,9.836577415E0
1.286269175E0,-1.622071713E-1,-4.728548229E-2,9.726444244E0
1.288267613E0,-7.601590455E-2,-4.189853091E-3,9.712079048E0
1.290266050E0,-5.207388848E-2,1.496376097E-2,9.874884605E0
1.292264488E0,-9.995792061E-2,5.985504249E-4,9.731232643E0
1.294262925E0,1.017535757E-2,1.155202314E-1,9.630676270E0
1.296261363E0,1.011550203E-1,1.777694821E-1,9.894038200E0
1.298259800E0,1.975216344E-2,3.262099922E-1,9.563638687E0
1.300258238E0,5.327098817E-2,3.980360329E-1,9.386467934E0
1.302256675E0,4.848258570E-2,3.166331649E-1,9.496601105E0
1.304255113E0,6.763619930E-2,2.735375464E-1,9.755174637E0
1.306253550E0,1.298854351E-1,2.495955229E-1,9.846154213E0
1.308251988E0,2.064998895E-1,2.879027426E-1,1.011909389E1
1.310250425E0,1.059434265E-1,2.064998895E-1,1.008078671E1
1.312248863E0,2.831143439E-1,4.554968774E-1,9.544485092E0
1.314247300E0,3.118447661E-1,4.985924959E-1,9.827000618E0
1.316245738E0,2.639607489E-1,5.991489887E-1,9.606734276E0
1.318244175E0,1.921346933E-1,6.470330358E-1,9.458293915E0
1.320242613E0,1.969230920E-1,6.901286244E-1,9.549273491E0
1.322241050E0,2.783259451E-1,7.619546652E-1,9.443928719E0
1.324239279E0,2.926911712E-1,6.661866307E-1,9.759963036E0
1.326237509E0,2.735375464E-1,4.459200799E-1,1.021007347E1
1.328235738E0,2.256535143E-1,4.363432527E-1,1.017655468E1
1.330233967E0,1.969230920E-1,8.289923668E-1,9.429563522E0
1.332232196E0,1.729810685E-1,8.577227592E-1,9.491812706E0
1.334230425E0,1.298854351E-1,7.858967185E-1,9.836577415E0
1.336228654E0,1.059434265E-1,6.997054219E-1,9.788693428E0
1.338226884E0,1.586158574E-1,5.752069354E-1,9.903614998E0
1.340225113E0,2.256535143E-1,6.757634282E-1,9.798270226E0
1.342223342E0,1.586158574E-1,8.242039084E-1,9.482235909E0
1.344221623E0,1.059434265E-1,8.577227592E-1,9.276334763E0
1.346219956E0,3.411737457E-2,7.380126715E-1,9.482235909E0
1.348218342E0,1.011550203E-1,5.273229480E-1,1.000895977E1
1.350216779E0,9.636662155E-2,6.709750295E-1,9.865307808E0
1.352215269E0,7.242459804E-2,7.858967185E-1,9.630676270E0
1.354213759E0,3.411737457E-2,7.811083198E-1,9.544485092E0
1.356212248E0,-4.189853091E-3,6.374561787E-1,9.774328232E0
1.358210738E0,-4.249707982E-2,5.416881442E-1,9.908403397E0
1.360209227E0,1.017535757E-2,5.177460909E-1,9.812635422E0
1.362207717E0,5.985504249E-4,6.135141850E-1,9.487024307E0
1.364206206E0,1.017535757E-2,7.811083198E-1,9.008183479E0
1.366204540E0,-8.080431074E-2,3.597288132E-1,9.022548676E0
1.368202769E0,-5.207388848E-2,-8.086416125E-1,1.164659405E1
1.370200998E0,1.681926697E-1,-3.345896900E-1,1.190516758E1
1.372199227E0,1.394622475E-1,7.954735160E-1,8.122329712E0
1.374197456E0,1.496376097E-2,9.008184075E-1,8.328230858E0
1.376195686E0,-6.165069342E-2,3.549404144E-1,9.769539833E0
1.378193915E0,-9.038111567E-2,7.721300423E-2,1.013824749E1
1.380192196E0,-2.813187055E-2,1.586158574E-1,1.002811337E1
1.382190529E0,3.411737457E-2,3.453635871E-1,9.372102737E0
1.384188915E0,-3.292027488E-2,2.543839216E-1,9.750386238E0
1.386187352E0,-4.728548229E-2,4.842272997E-1,9.520543098E0
1.388185842E0,-1.238999367E-1,6.613982320E-1,9.204508781E0
1.390184384E0,-2.483984232E-1,5.991489887E-1,9.458293915E0
1.392182977E0,-3.106476665E-1,4.411316514E-1,1.004726696E1
1.394181571E0,-2.196680009E-1,2.112883031E-1,1.035372543E1
1.396180165E0,-1.622071713E-1,1.107318252E-1,1.009994030E1
1.398178759E0,-1.957259923E-1,4.507084787E-1,9.999382973E0
1.400177352E0,-2.292448133E-1,8.720879555E-1,8.907627106E0
1.402175946E0,-2.436100245E-1,7.092822790E-1,9.175778389E0
1.404174540E0,-1.478419602E-1,2.352303118E-1,1.055962658E1
1.406173134E0,-2.292448133E-1,1.969230920E-1,1.016218948E1
1.408171727E0,-1.143231317E-1,3.884592354E-1,9.731232643E0
1.410170165E0,-2.813187055E-2,6.901286244E-1,9.314641953E0
1.412168394E0,5.985504249E-4,7.811083198E-1,9.170989990E0
1.414166623E0,9.636662155E-2,5.560533404E-1,9.649829865E0
1.416164852E0,2.017114908E-1,4.602852762E-1,1.046864700E1
1.418163081E0,1.490390599E-1,7.811083198E-1,9.621099472E0
1.420161311E0,8.200141042E-2,7.523778677E-1,9.448717117E0
1.422159540E0,2.017114908E-1,5.608417392E-1,1.002332497E1
1.424157769E0,1.777694821E-1,5.752069354E-1,9.769539833E0
1.426155998E0,1.346738487E-1,8.194155097E-1,9.285911560E0
1.428154227E0,9.636662155E-2,7.571662664E-1,9.261969566E0
1.430152456E0,1.825578809E-1,3.405751884E-1,1.019091988E1
1.432150738E0,1.969230920E-1,2.017114908E-1,1.051174259E1
1.434149071E0,2.017114908E-1,6.470330358E-1,9.654618263E0
1.436147456E0,2.208651006E-1,9.870096445E-1,8.984241486E0
1.438145894E0,2.112883031E-1,8.002619147E-1,9.563638687E0
1.440144384E0,1.203086376E-1,4.076128304E-1,1.043991661E1
1.442142925E0,1.155202314E-1,6.661866307E-1,9.941922188E0
1.444141519E0,1.346738487E-1,1.054047346E0,8.802282333E0
1.446140165E0,8.678980917E-2,6.805518270E-1,9.606734276E0
1.448138863E0,1.203086376E-1,3.597288132E-1,1.051174259E1
1.450137561E0,1.059434265E-1,5.991489887E-1,9.865307808E0
1.452136259E0,1.490390599E-1,7.044938207E-1,9.338583946E0
1.454134956E0,1.346738487E-1,4.267664552E-1,9.759963036E0
1.456133654E0,1.634042710E-1,1.298854351E-1,1.037766743E1
1.458131988E0,2.112883031E-1,3.597288132E-1,9.841365814E0
1.460130321E0,9.636662155E-2,5.608417392E-1,8.907627106E0
1.462128654E0,1.250970364E-1,1.729810685E-1,9.621099472E0
1.464126988E0,1.634042710E-1,-1.765723825E-1,1.045428181E1
1.466125321E0,1.059434265E-1,1.921346933E-1,9.788693428E0
1.468123654E0,8.678980917E-2,3.836708367E-1,9.223662376E0
1.470121988E0,7.242459804E-2,1.825578809E-1,9.659406662E0
1.472120321E0,7.242459804E-2,1.442506462E-1,1.038245583E1
1.474118654E0,1.442506462E-1,4.363432527E-1,9.630676270E0
1.476116988E0,1.250970364E-1,4.842272997E-1,9.084798813E0
1.478115373E0,3.890577704E-2,1.059434265E-1,9.922768593E0
1.480113811E0,1.496376097E-2,-2.813187055E-2,1.004726696E1
1.482112248E0,7.242459804E-2,2.400187254E-1,9.491812706E0
1.484110686E0,5.386953708E-3,3.070563674E-1,9.534908295E0
1.486109123E0,3.411737457E-2,2.112883031E-1,9.874884605E0
1.488107561E0,1.059434265E-1,1.777694821E-1,9.917980194E0
1.490105998E0,1.394622475E-1,3.214215636E-1,9.314641953E0
1.492104436E0,5.327098817E-2,1.250970364E-1,1.003290176E1
1.494102873E0,5.386953708E-3,-9.995792061E-2,1.031541824E1
1.496101311E0,7.242459804E-2,2.591723204E-1,9.563638687E0
1.498099800E0,-4.249707982E-2,3.980360329E-1,9.151836395E0
1.500098290E0,-1.143231317E-1,-6.165069342E-2,9.750386238E0
1.502096779E0,-1.334767491E-1,-1.813607812E-1,1.042555141E1
1.504095269E0,-9.516951442E-2,1.394622475E-1,9.539696693E0
1.506093759E0,-1.191115379E-1,3.214215636E-1,8.965087891E0
1.508092248E0,-1.430535465E-1,1.394622475E-1,9.592369080E0
1.510090738E0,-1.430535465E-1,-2.100912035E-1,1.024838066E1
1.512089227E0,-6.643909961E-2,4.848258570E-2,9.951498985E0
1.514087665E0,-1.047463268E-1,2.160767019E-1,9.089587212E0
1.516086102E0,-1.143231317E-1,-9.995792061E-2,9.903614998E0
1.518084488E0,-4.728548229E-2,-1.957259923E-1,1.029147625E1
1.520082821E0,-4.249707982E-2,1.969230920E-1,9.759963036E0
1.522081154E0,-9.995792061E-2,4.794389009E-1,9.113529205E0
1.524079488E0,-7.601590455E-2,2.591723204E-1,9.515754700E0
1.526077821E0,-5.207388848E-2,1.059434265E-1,1.004247856E1
1.528076154E0,-7.122749835E-2,2.064998895E-1,9.745597839E0
1.530074488E0,1.975216344E-2,2.591723204E-1,9.611522675E0
1.532072821E0,3.411737457E-2,3.118447661E-1,9.654618263E0
1.534071154E0,1.203086376E-1,4.219780564E-1,9.587580681E0
1.536069488E0,1.298854351E-1,5.464765429E-1,9.712079048E0
1.538067821E0,1.155202314E-1,4.698620737E-1,9.554061890E0
1.540066154E0,2.064998895E-1,1.969230920E-1,1.044470501E1
1.542064488E0,2.400187254E-1,2.926911712E-1,1.009036350E1
1.544062821E0,2.352303118E-1,5.847837925E-1,9.204508781E0
1.546061154E0,2.591723204E-1,4.985924959E-1,9.362525940E0
1.548059488E0,3.262099922E-1,1.442506462E-1,1.009994030E1
1.550057873E0,3.214215636E-1,2.256535143E-1,1.001853657E1
1.552056311E0,3.597288132E-1,5.799953341E-1,9.103952408E0
1.554054748E0,3.166331649E-1,4.698620737E-1,9.587580681E0
1.556053238E0,2.735375464E-1,4.124012291E-1,9.645041466E0
1.558051727E0,3.405751884E-1,5.464765429E-1,9.611522675E0
1.560050217E0,2.735375464E-1,6.087257862E-1,9.295488358E0
1.562048706E0,2.831143439E-1,4.028244317E-1,9.951498985E0
1.564047196E0,2.208651006E-1,3.836708367E-1,1.042076302E1
1.566045686E0,1.586158574E-1,5.416881442E-1,9.884461403E0
1.568043967E0,1.586158574E-1,8.433575630E-1,9.664195061E0
1.570042248E0,7.721300423E-2,7.811083198E-1,9.860519409E0
1.572040529E0,9.636662155E-2,8.050503135E-1,9.836577415E0
1.574038759E0,7.242459804E-2,1.298255920E0,9.510966301E0
1.576036988E0,1.921346933E-1,1.384447098E0,8.840589523E0
1.578035217E0,1.442506462E-1,1.068412542E0,9.908403397E0
1.580033446E0,9.636662155E-2,9.247604012E-1,1.032020664E1
1.582031675E0,8.678980917E-2,1.106719732E0,9.822212219E0
1.584029904E0,-8.978256024E-3,1.092354536E0,9.386467934E0
1.586028134E0,-1.574187577E-1,6.757634282E-1,9.812635422E0
1.588026415E0,-1.855506375E-2,1.015740037E0,9.506177902E0
1.590024748E0,1.496376097E-2,1.149815321E0,9.362525940E0
1.592023134E0,-1.334767491E-1,7.188590765E-1,1.024838066E1
1.594021571E0,-2.053027898E-1,7.428010702E-1,1.070327854E1
1.596020061E0,-2.244564146E-1,1.197699428E0,9.573215485E0
1.598018602E0,-2.627636492E-1,1.355716705E0,9.137471199E0
1.600017196E0,-3.728969097E-1,1.154603720E0,9.879673004E0
1.602015790E0,-4.064157307E-1,1.145026922E0,9.779116631E0
1.604014384E0,-3.776853085E-1,1.164180517E0,9.587580681E0
1.606012977E0,-3.585317135E-1,7.954735160E-1,9.985017776E0
1.608011571E0,-3.441664875E-1,6.853402257E-1,1.020049667E1
1.610010165E0,-2.962824702E-1,8.577227592E-1,9.539696693E0
1.612008759E0,-4.351461530E-1,8.242039084E-1,9.645041466E0
1.614007352E0,-4.447229803E-1,7.332242727E-1,9.946710587E0
1.616005946E0,-4.830302000E-1,9.678560495E-1,9.487024307E0
1.618004540E0,-5.596446395E-1,9.487023950E-1,8.883685112E0
1.620003134E0,-5.787982345E-1,5.847837925E-1,9.769539833E0
1.622001727E0,-5.357026458E-1,3.309983909E-1,9.970652580E0
1.624000321E0,-5.692214370E-1,2.256535143E-1,1.007120991E1
1.625998915E0,-4.542997777E-1,5.368997455E-1,9.673771858E0
1.627997509E0,-4.878185987E-1,8.050503135E-1,9.309853554E0
1.629996102E0,-3.824737072E-1,7.140706778E-1,9.228450775E0
1.631994696E0,-3.393780887E-1,4.985924959E-1,9.779116631E0
1.633993290E0,-3.058592677E-1,4.459200799E-1,1.006163311E1
1.635991884E0,-2.196680009E-1,4.411316514E-1,9.755174637E0
1.637990477E0,-9.038111567E-2,3.166331649E-1,9.726444244E0
1.639989071E0,-2.813187055E-2,3.932476342E-1,1.030584145E1
1.641987665E0,-8.080431074E-2,7.763199210E-1,9.252392769E0
1.643986311E0,-1.095347255E-1,5.895721912E-1,9.922768593E0
1.645985009E0,2.932897024E-2,5.464765429E-1,1.011909389E1
1.647983759E0,6.763619930E-2,6.039373875E-1,9.396044731E0
1.649982509E0,1.107318252E-1,6.278793812E-1,9.941922188E0
1.651981259E0,5.805939063E-2,9.439139962E-1,8.907627106E0
1.653980009E0,9.636662155E-2,4.363432527E-1,9.807847023E0
1.655978759E0,1.777694821E-1,2.495955229E-1,1.100015926E1
1.657977509E0,2.064998895E-1,9.726444483E-1,8.969876289E0
1.659975946E0,9.157821536E-2,8.960300088E-1,8.658630371E0
1.661974384E0,1.250970364E-1,3.501519859E-1,1.017176628E1
1.663972821E0,1.394622475E-1,5.799953341E-1,1.014303589E1
1.665971259E0,2.400187254E-1,8.768763542E-1,9.405621529E0
1.667969696E0,1.538274586E-1,8.337807655E-1,9.908403397E0
1.669968186E0,1.729810685E-1,7.236474752E-1,9.740809441E0
1.671966727E0,2.112883031E-1,5.129576921E-1,1.030584145E1
1.673965321E0,8.200141042E-2,7.619546652E-1,9.487024307E0
1.675963967E0,1.442506462E-1,7.619546652E-1,9.166201591E0
1.677962613E0,1.017535757E-2,5.129576921E-1,1.024359226E1
1.679961259E0,4.848258570E-2,8.002619147E-1,9.611522675E0
1.681959904E0,5.805939063E-2,7.619546652E-1,9.400833130E0
1.683958550E0,1.490390599E-1,6.901286244E-1,9.726444244E0
1.685957196E0,1.011550203E-1,6.661866307E-1,9.616311073E0
1.687955842E0,6.763619930E-2,4.985924959E-1,9.860519409E0
1.689954488E0,1.059434265E-1,6.278793812E-1,9.678560257E0
1.691953134E0,6.284779310E-2,5.129576921E-1,9.434351921E0
1.693951779E0,7.242459804E-2,3.309983909E-1,1.013824749E1
1.695950425E0,6.763619930E-2,6.661866307E-1,9.884461403E0
1.697949071E0,3.890577704E-2,7.811083198E-1,8.945934296E0
1.699947613E0,1.107318252E-1,4.459200799E-1,9.716867447E0
1.701946050E0,-4.189853091E-3,3.501519859E-1,1.048301220E1
1.703944488E0,-1.574187577E-1,4.315548539E-1,9.127894402E0
1.705942509E0,-2.579752207E-1,3.693056107E-1,1.017655468E1
1.707940529E0,-2.148796022E-1,5.512649417E-1,9.616311073E0
1.709938550E0,-3.106476665E-1,5.416881442E-1,9.807847023E0
1.711936623E0,-2.244564146E-1,5.560533404E-1,9.812635422E0
1.713934748E0,-1.430535465E-1,1.203086376E-1,9.831789017E0
1.715932925E0,-1.957259923E-1,5.386953708E-3,1.078946972E1
1.717931154E0,-2.196680009E-1,5.273229480E-1,8.653841972E0
1.719929436E0,-2.723404467E-1,3.118447661E-1,9.539696693E0
1.721927821E0,-2.627636492E-1,2.352303118E-1,1.003769016E1
1.723926259E0,-2.579752207E-1,3.645172119E-1,8.960299492E0
1.725924748E0,-8.559270948E-2,1.442506462E-1,9.903614998E0
1.727923290E0,-4.189853091E-3,2.208651006E-1,9.850942612E0
1.729921884E0,3.411737457E-2,-7.122749835E-2,1.009515190E1
1.731920529E0,1.250970364E-1,-1.047463268E-1,1.050216579E1
1.733919175E0,7.242459804E-2,3.166331649E-1,8.965087891E0
1.735917821E0,1.442506462E-1,4.369417951E-2,9.668983459E0
1.737916467E0,1.203086376E-1,1.203086376E-1,9.439140320E0
1.739915113E0,1.490390599E-1,-1.622071713E-1,9.635464668E0
1.741913759E0,2.591723204E-1,-2.771288455E-1,1.000417137E1
1.743912248E0,2.783259451E-1,-1.430535465E-1,9.448717117E0
1.745910634E0,3.884592354E-1,-3.585317135E-1,9.788693428E0
1.747908863E0,4.028244317E-1,-1.813607812E-1,9.774328232E0
1.749907092E0,4.124012291E-1,-8.559270948E-2,9.261969566E0
1.751905321E0,4.746504724E-1,-6.165069342E-2,1.019091988E1
1.753903550E0,5.847837925E-1,-7.122749835E-2,9.649829865E0
1.755901779E0,5.560533404E-1,-2.196680009E-1,9.894038200E0
1.757900009E0,6.230909824E-1,-1.286883354E-1,1.009515190E1
1.759898238E0,5.799953341E-1,-1.855506375E-2,8.744821548E0
1.761896467E0,4.985924959E-1,-2.723404467E-1,9.980229378E0
1.763894696E0,5.464765429E-1,-1.669955701E-1,1.021965027E1
1.765892925E0,6.039373875E-1,1.634042710E-1,9.238027573E0
1.767891154E0,6.613982320E-1,1.011550203E-1,9.716867447E0
1.769889384E0,6.230909824E-1,7.242459804E-2,9.338583946E0
1.771887613E0,5.704185367E-1,-1.622071713E-1,9.573215485E0
1.773885842E0,6.039373875E-1,-3.250128925E-1,1.070806694E1
1.775884123E0,6.518214345E-1,-1.855506375E-2,9.362525940E0
1.777882456E0,6.230909824E-1,-4.189853091E-3,9.319430351E0
1.779880842E0,5.368997455E-1,-2.436100245E-1,1.044470501E1
1.781879279E0,6.087257862E-1,-1.622071713E-1,1.012388229E1
1.783877769E0,5.416881442E-1,1.107318252E-1,9.630676270E0
1.785876311E0,4.746504724E-1,4.459200799E-1,8.586804390E0
1.787874852E0,4.794389009E-1,6.326677799E-1,8.902838707E0
1.789873394E0,2.879027426E-1,1.394622475E-1,7.672219276E0
1.791871936E0,5.327098817E-2,-2.321777105E0,1.441429138E1
1.793870477E0,3.740940094E-1,-6.410474777E-1,1.237443161E1
1.795869019E0,3.836708367E-1,1.236006618E0,5.895721912E0
1.797867352E0,8.200141042E-2,7.667431235E-1,7.935581684E0
1.799865686E0,-4.189853091E-3,-5.500678420E-1,1.112944698E1
1.801864019E0,-5.207388848E-2,-9.858125448E-1,1.123000336E1
1.803862352E0,9.157821536E-2,-8.080431074E-2,9.913191795E0
1.805860686E0,3.411737457E-2,4.219780564E-1,7.897274494E0
1.807859019E0,-1.574187577E-1,-8.559270948E-2,9.271546364E0
1.809857352E0,-1.669955701E-1,-6.745663285E-1,1.070327854E1
1.811855686E0,-1.430535465E-1,-6.554127336E-1,1.065539455E1
1.813854019E0,-8.080431074E-2,3.411737457E-2,9.166201591E0
1.815852352E0,-1.669955701E-1,3.309983909E-1,8.280346870E0
1.817850686E0,-2.579752207E-1,-2.340332121E-1,9.520543098E0
1.819849019E0,-1.478419602E-1,-4.590881765E-1,1.037766743E1
1.821847352E0,-8.559270948E-2,-4.590881765E-1,1.039682102E1
1.823845686E0,1.017535757E-2,-2.531868219E-1,9.913191795E0
1.825843759E0,-2.334346622E-2,-1.047463268E-1,9.367314339E0
1.827841831E0,-2.334346622E-2,-1.478419602E-1,9.645041466E0
1.829839904E0,-4.189853091E-3,-1.430535465E-1,9.645041466E0
1.831837977E0,5.985504249E-4,-2.196680009E-1,8.965087891E0
1.833836050E0,-4.728548229E-2,-5.596446395E-1,9.951498985E0
1.835834123E0,2.932897024E-2,-4.399345517E-1,1.048780060E1
1.837832196E0,1.873462796E-1,-8.559270948E-2,9.032125473E0
1.839830269E0,1.586158574E-1,-2.483984232E-1,9.635464668E0
1.841828342E0,1.634042710E-1,-4.351461530E-1,1.066975975E1
1.843826415E0,2.352303118E-1,-2.914940715E-1,1.011909389E1
1.845824488E0,2.448071241E-1,1.107318252E-1,9.242815971E0
1.847822561E0,1.346738487E-1,-9.516951442E-2,9.563638687E0
1.849820634E0,1.538274586E-1,-3.537433147E-1,1.003769016E1
1.851818706E0,2.112883031E-1,-2.771288455E-1,1.025795746E1
1.853816831E0,2.831143439E-1,1.490390599E-1,9.309853554E0
1.855815009E0,3.405751884E-1,5.033808947E-1,8.687360764E0
1.857813238E0,3.501519859E-1,4.028244317E-1,9.060855865E0
1.859811519E0,3.405751884E-1,-4.728548229E-2,1.014782429E1
1.861809800E0,4.076128304E-1,-2.100912035E-1,1.083735371E1
1.863808081E0,3.980360329E-1,1.490390599E-1,9.774328232E0
1.865806363E0,5.416881442E-1,4.076128304E-1,9.362525940E0
1.867804644E0,5.081692934E-1,3.597288132E-1,9.415198326E0
1.869802925E0,3.405751884E-1,3.411737457E-2,9.673771858E0
1.871801206E0,2.831143439E-1,-1.574187577E-1,1.062666416E1
1.873799488E0,4.124012291E-1,2.543839216E-1,9.941922188E0
1.875797769E0,4.219780564E-1,5.416881442E-1,8.625111580E0
1.877796050E0,4.650736749E-1,3.118447661E-1,9.458293915E0
1.879794227E0,3.980360329E-1,1.496376097E-2,1.022443867E1
1.881792404E0,4.507084787E-1,2.017114908E-1,9.783905029E0
1.883790529E0,3.980360329E-1,3.166331649E-1,9.510966301E0
1.885788654E0,4.076128304E-1,2.160767019E-1,9.606734276E0
1.887786779E0,3.309983909E-1,5.327098817E-2,9.946710587E0
1.889784904E0,3.118447661E-1,-4.189853091E-3,9.774328232E0
1.891783029E0,1.825578809E-1,1.203086376E-1,9.410409927E0
1.893781154E0,1.538274586E-1,1.107318252E-1,9.300276756E0
1.895779279E0,1.298854351E-1,-8.080431074E-2,9.989806175E0
1.897777404E0,8.678980917E-2,-2.148796022E-1,1.066975975E1
1.899775529E0,1.394622475E-1,1.490390599E-1,9.434351921E0
1.901773706E0,5.327098817E-2,2.112883031E-1,8.802282333E0
1.903771936E0,-8.559270948E-2,-1.861491799E-1,1.018134308E1
1.905770217E0,2.932897024E-2,-1.334767491E-1,1.022922707E1
1.907768550E0,-4.249707982E-2,-1.526303589E-1,9.750386238E0
1.909766936E0,3.411737457E-2,-1.717839688E-1,9.779116631E0
1.911765373E0,8.200141042E-2,5.327098817E-2,9.702502251E0
1.913763863E0,-4.189853091E-3,1.394622475E-1,8.763975143E0
1.915762404E0,-5.207388848E-2,-1.047463268E-1,9.654618263E0
1.917760998E0,-1.143231317E-1,-2.771288455E-1,1.008078671E1
1.919759592E0,-1.622071713E-1,-3.106476665E-1,9.774328232E0
1.921758186E0,-1.095347255E-1,-2.627636492E-1,1.028189945E1
1.923756779E0,5.985504249E-4,-9.038111567E-2,9.870096207E0
1.925755373E0,-8.559270948E-2,9.157821536E-2,9.329007149E0
1.927753863E0,-1.334767491E-1,-1.526303589E-1,9.692925453E0
1.929752144E0,-1.526303589E-1,-4.064157307E-1,1.021486187E1
1.931750269E0,-6.643909961E-2,-4.189853091E-3,9.645041466E0
1.933748394E0,-9.995792061E-2,1.011550203E-1,9.051279068E0
1.935746519E0,-9.038111567E-2,-4.249707982E-2,9.999382973E0
1.937744644E0,-1.095347255E-1,-3.770867735E-2,9.755174637E0
1.939742769E0,-1.765723825E-1,-1.191115379E-1,9.635464668E0
1.941740894E0,-1.286883354E-1,-1.334767491E-1,9.874884605E0
1.943739019E0,-1.047463268E-1,-1.855506375E-2,9.582792282E0
1.945737144E0,-5.207388848E-2,1.496376097E-2,9.343372345E0
1.947735269E0,2.932897024E-2,-2.867056429E-1,9.994594574E0
1.949733446E0,-1.855506375E-2,-1.813607812E-1,1.037287903E1
1.951731623E0,-4.249707982E-2,2.932897024E-2,9.190143585E0
1.953729852E0,-1.095347255E-1,-1.191115379E-1,1.002332497E1
1.955728134E0,-9.038111567E-2,6.284779310E-2,9.774328232E0
1.957726415E0,-8.080431074E-2,2.495955229E-1,9.233239174E0
1.959724696E0,-4.249707982E-2,1.777694821E-1,9.659406662E0
1.961722977E0,-6.643909961E-2,8.678980917E-2,9.616311073E0
1.963721259E0,1.975216344E-2,-2.334346622E-2,9.917980194E0
1.965719540E0,1.017535757E-2,-1.143231317E-1,1.004726696E1
1.967717821E0,2.454056777E-2,-2.148796022E-1,9.702502251E0
1.969716154E0,-1.238999367E-1,-6.841431260E-1,1.020528507E1
1.971714540E0,6.763619930E-2,2.256535143E-1,1.028668785E1
1.973712977E0,2.400187254E-1,1.063624144E0,7.533355713E0
1.975711467E0,-4.189853091E-3,3.980360329E-1,9.032125473E0
1.977709956E0,1.017535757E-2,-4.447229803E-1,1.163701725E1
1.979708446E0,1.975216344E-2,-1.526303589E-1,1.039682102E1
1.981706936E0,-7.122749835E-2,1.777694821E-1,9.352949142E0
1.983705425E0,-3.770867735E-2,2.639607489E-1,9.554061890E0
1.985703915E0,3.890577704E-2,3.070563674E-1,9.645041466E0
1.987702404E0,-2.813187055E-2,2.495955229E-1,9.496601105E0
1.989700894E0,5.805939063E-2,7.242459804E-2,1.003769016E1
1.991699384E0,1.538274586E-1,1.490390599E-1,9.860519409E0
1.993697873E0,8.678980917E-2,9.157821536E-2,9.803058624E0
1.995696363E0,5.985504249E-4,6.763619930E-2,1.001374817E1
1.997694852E0,-7.122749835E-2,9.636662155E-2,9.649829865E0
1.999693290E0,-9.995792061E-2,3.980360329E-1,8.926780701E0
2.001691571E0,-1.622071713E-1,2.448071241E-1,9.170989990E0
2.003689852E0,-1.238999367E-1,-1.334767491E-1,1.027711105E1
2.005688134E0,-6.165069342E-2,-2.531868219E-1,1.044470501E1
2.007686415E0,-2.334346622E-2,-2.005143911E-1,9.884461403E0
2.009684696E0,-7.122749835E-2,-1.855506375E-2,9.276334763E0
2.011682977E0,5.386953708E-3,-1.376665942E-2,9.357737541E0
2.013681259E0,-6.165069342E-2,-5.686229095E-2,9.448717117E0
2.015679540E0,-8.080431074E-2,-3.298012912E-1,9.913191795E0
2.017677821E0,1.496376097E-2,-2.675520480E-1,1.034893703E1
2.019676102E0,-5.207388848E-2,5.985504249E-4,9.132682800E0
2.021674436E0,-1.334767491E-1,-1.095347255E-1,9.894038200E0
2.023672821E0,-7.601590455E-2,-2.196680009E-1,9.769539833E0
2.025671206E0,-5.686229095E-2,-1.765723825E-1,9.783905029E0
2.027669644E0,-1.095347255E-1,-9.038111567E-2,9.554061890E0
2.029668134E0,-4.728548229E-2,-2.436100245E-1,9.606734276E0
2.031666675E0,-1.526303589E-1,-3.776853085E-1,1.024838066E1
2.033665217E0,-2.813187055E-2,-1.526303589E-1,9.702502251E0
2.035663759E0,8.200141042E-2,-3.770867735E-2,9.587580681E0
2.037662300E0,6.284779310E-2,5.386953708E-3,9.645041466E0
2.039660842E0,-4.728548229E-2,1.975216344E-2,9.769539833E0
2.041659384E0,-7.122749835E-2,5.985504249E-4,9.836577415E0
2.043657925E0,-5.207388848E-2,1.203086376E-1,9.573215485E0
2.045656467E0,-6.165069342E-2,2.017114908E-1,9.625887871E0
2.047655009E0,-9.038111567E-2,2.400187254E-1,9.692925453E0
2.049653498E0,1.975216344E-2,1.873462796E-1,9.927556992E0
2.051651727E0,8.678980917E-2,3.693056107E-1,9.673771858E0
2.053649904E0,7.721300423E-2,4.746504724E-1,9.544485092E0
2.055648081E0,-1.855506375E-2,2.400187254E-1,9.855731010E0
2.057646259E0,7.242459804E-2,-4.728548229E-2,1.034893703E1
2.059644436E0,5.386953708E-3,1.681926697E-1,9.865307808E0
2.061642613E0,2.932897024E-2,4.028244317E-1,9.238027573E0
2.063640790E0,3.411737457E-2,3.453635871E-1,9.314641953E0
2.065638967E0,6.763619930E-2,2.974795699E-1,9.831789017E0
2.067637144E0,1.490390599E-1,2.352303118E-1,9.683348656E0
2.069635373E0,1.681926697E-1,4.363432527E-1,9.822212219E0
2.071633654E0,1.490390599E-1,5.273229480E-1,9.247604370E0
2.073631988E0,8.200141042E-2,1.442506462E-1,1.019570827E1
2.075630321E0,6.763619930E-2,2.064998895E-1,1.023401546E1
2.077628654E0,9.636662155E-2,5.416881442E-1,8.941145897E0
2.079626988E0,-4.728548229E-2,2.543839216E-1,9.573215485E0
2.081625321E0,-7.601590455E-2,1.496376097E-2,1.039682102E1
2.083623654E0,-7.601590455E-2,1.681926697E-1,9.999382973E0
2.085621988E0,-8.559270948E-2,4.650736749E-1,9.482235909E0
2.087620373E0,-7.601590455E-2,4.076128304E-1,9.554061890E0
2.089618811E0,-1.957259923E-1,1.681926697E-1,9.985017776E0
2.091617300E0,-1.765723825E-1,1.203086376E-1,9.884461403E0
2.093615790E0,-1.526303589E-1,-2.813187055E-2,9.731232643E0
2.095614279E0,-2.531868219E-1,-9.038111567E-2,9.956287384E0
2.097612769E0,-2.579752207E-1,1.298854351E-1,9.285911560E0
2.099611259E0,-3.202244639E-1,5.805939063E-2,9.419986725E0
2.101609748E0,-4.064157307E-1,-5.686229095E-2,9.874884605E0
2.103608238E0,-3.106476665E-1,5.327098817E-2,9.621099472E0
2.105606727E0,-2.483984232E-1,2.112883031E-1,9.520543098E0
2.107605061E0,-2.675520480E-1,2.639607489E-1,9.156624794E0
2.109603394E0,-2.675520480E-1,-8.978256024E-3,1.009994030E1
2.111601727E0,-2.148796022E-1,-2.388216257E-1,1.051653099E1
2.113600061E0,-2.723404467E-1,-8.080431074E-2,9.827000618E0
2.115598394E0,-3.393780887E-1,1.490390599E-1,9.592369080E0
2.117596727E0,-3.728969097E-1,2.639607489E-1,9.314641953E0
2.119595061E0,-3.776853085E-1,1.203086376E-1,9.467870712E0
2.121593394E0,-4.303577542E-1,3.890577704E-2,9.970652580E0
2.123591727E0,-3.585317135E-1,6.284779310E-2,9.616311073E0
2.125590061E0,-3.393780887E-1,5.386953708E-3,9.616311073E0
2.127588394E0,-3.345896900E-1,-1.957259923E-1,1.016218948E1
2.129586727E0,-3.010708690E-1,-8.080431074E-2,9.951498985E0
2.131585061E0,-2.675520480E-1,7.242459804E-2,9.376891136E0
2.133583394E0,-2.579752207E-1,-3.770867735E-2,9.731232643E0
2.135581727E0,-2.100912035E-1,-1.143231317E-1,1.004247856E1
2.137580061E0,-1.574187577E-1,1.634042710E-1,9.769539833E0
2.139578394E0,-2.340332121E-1,3.118447661E-1,9.410409927E0
2.141576727E0,-2.771288455E-1,1.825578809E-1,9.697713852E0
2.143575061E0,-3.345896900E-1,1.298854351E-1,9.879673004E0
2.145573394E0,-2.914940715E-1,1.969230920E-1,9.649829865E0
2.147571779E0,-2.819172442E-1,2.256535143E-1,9.601945877E0
2.149570217E0,-2.244564146E-1,2.783259451E-1,9.922768593E0
2.151568706E0,-1.622071713E-1,3.884592354E-1,9.477447510E0
2.153567248E0,-1.382651478E-1,3.022679687E-1,9.807847023E0
2.155565790E0,-2.100912035E-1,3.118447661E-1,9.898826599E0
2.157564331E0,-1.717839688E-1,4.411316514E-1,9.491812706E0
2.159562873E0,-1.813607812E-1,5.081692934E-1,9.649829865E0
2.161561415E0,-4.728548229E-2,3.740940094E-1,9.951498985E0
2.163559956E0,-1.095347255E-1,3.980360329E-1,1.016218948E1
2.165558498E0,-9.995792061E-2,5.129576921E-1,9.573215485E0
2.167557040E0,-1.855506375E-2,4.076128304E-1,9.712079048E0
2.169555581E0,-5.207388848E-2,4.985924959E-1,9.611522675E0
2.171554123E0,2.454056777E-2,3.932476342E-1,9.683348656E0
2.173552665E0,5.386953708E-3,3.262099922E-1,9.783905029E0
2.175551206E0,4.369417951E-2,5.368997455E-1,9.525331497E0
2.177549748E0,-1.855506375E-2,5.416881442E-1,9.424775124E0
2.179548290E0,7.242459804E-2,2.352303118E-1,1.008078671E1
2.181546571E0,7.242459804E-2,2.639607489E-1,9.879673004E0
2.183544852E0,1.496376097E-2,3.693056107E-1,9.247604370E0
2.185543134E0,7.721300423E-2,2.256535143E-1,9.635464668E0
2.187541415E0,2.454056777E-2,1.011550203E-1,9.731232643E0
2.189539696E0,1.107318252E-1,1.346738487E-1,9.798270226E0
2.191537977E0,1.394622475E-1,1.298854351E-1,9.937133789E0
2.193536311E0,9.636662155E-2,1.681926697E-1,9.664195061E0
2.195534696E0,1.059434265E-1,1.346738487E-1,9.903614998E0
2.197533134E0,1.017535757E-2,2.017114908E-1,9.645041466E0
2.199531623E0,5.985504249E-4,1.969230920E-1,9.702502251E0
2.201530165E0,-6.643909961E-2,2.017114908E-1,9.870096207E0
2.203528759E0,-1.382651478E-1,2.831143439E-1,9.721655846E0
2.205527404E0,-1.382651478E-1,2.639607489E-1,9.697713852E0
2.207526050E0,-7.601590455E-2,3.740940094E-1,9.740809441E0
2.209524696E0,-1.238999367E-1,5.225345492E-1,9.678560257E0
2.211523342E0,-2.053027898E-1,4.411316514E-1,9.750386238E0
2.213521988E0,-2.340332121E-1,3.022679687E-1,1.021965027E1
2.215520634E0,-2.196680009E-1,4.459200799E-1,9.645041466E0
2.217519279E0,-7.122749835E-2,4.124012291E-1,9.994594574E0
2.219517925E0,-9.038111567E-2,6.135141850E-1,9.683348656E0
2.221516363E0,-1.430535465E-1,6.470330358E-1,8.893261909E0
2.223514800E0,-2.531868219E-1,4.028244317E-1,9.357737541E0
2.225513238E0,-3.154360652E-1,1.825578809E-1,9.573215485E0
2.227511675E0,-2.723404467E-1,2.256535143E-1,1.025795746E1
2.229510113E0,-9.995792061E-2,5.177460909E-1,9.894038200E0
2.231508550E0,-1.430535465E-1,7.380126715E-1,9.659406662E0
2.233506988E0,-1.861491799E-1,6.805518270E-1,9.515754700E0
2.235505425E0,-2.196680009E-1,3.214215636E-1,9.587580681E0
2.237503863E0,-2.388216257E-1,1.011550203E-1,9.764751434E0
2.239502300E0,-2.675520480E-1,-1.376665942E-2,1.035851383E1
2.241500738E0,-1.286883354E-1,2.208651006E-1,1.039203262E1
2.243499175E0,-1.238999367E-1,7.954735160E-1,8.960299492E0
2.245497613E0,-1.382651478E-1,7.380126715E-1,8.907627106E0
2.247496050E0,-7.601590455E-2,2.974795699E-1,9.817423820E0
2.249494540E0,-7.601590455E-2,1.490390599E-1,1.037287903E1
2.251493081E0,-8.080431074E-2,4.746504724E-1,9.731232643E0
2.253491675E0,-5.686229095E-2,5.416881442E-1,9.424775124E0
2.255490321E0,-1.334767491E-1,3.836708367E-1,9.956287384E0
2.257489019E0,-9.038111567E-2,3.309983909E-1,9.827000618E0
2.259487769E0,-1.143231317E-1,3.884592354E-1,9.913191795E0
2.261486571E0,-5.686229095E-2,3.932476342E-1,9.261969566E0
2.263485373E0,-1.334767491E-1,3.214215636E-1,9.898826599E0
2.265484175E0,-1.478419602E-1,4.219780564E-1,9.827000618E0
2.267482977E0,-9.516951442E-2,4.938040972E-1,9.611522675E0
2.269481779E0,-8.080431074E-2,5.560533404E-1,9.482235909E0
2.271480581E0,-3.770867735E-2,4.938040972E-1,9.319430351E0
2.273479227E0,1.975216344E-2,2.831143439E-1,1.021965027E1
2.275477769E0,3.411737457E-2,2.112883031E-1,1.026753426E1
2.277476259E0,-3.292027488E-2,5.656301379E-1,9.860519409E0
2.279474748E0,1.496376097E-2,9.103952050E-1,9.142259598E0
2.281473081E0,-2.813187055E-2,6.757634282E-1,9.601945877E0
2.283471415E0,5.386953708E-3,5.560533404E-1,1.037766743E1
2.285469748E0,8.200141042E-2,7.763199210E-1,9.257181168E0
2.287468081E0,8.200141042E-2,6.949170232E-1,9.391256332E0
2.289466467E0,7.721300423E-2,6.757634282E-1,9.635464668E0
2.291464904E0,-4.189853091E-3,6.901286244E-1,9.831789017E0
2.293463394E0,6.763619930E-2,6.949170232E-1,9.894038200E0
2.295461936E0,7.721300423E-2,6.661866307E-1,9.463082314E0
2.297460529E0,-6.165069342E-2,7.715315223E-1,9.731232643E0
2.299459175E0,5.985504249E-4,7.811083198E-1,9.309853554E0
2.301457873E0,1.634042710E-1,3.309983909E-1,1.048780060E1
2.303456623E0,2.160767019E-1,4.794389009E-1,1.025316906E1
2.305455425E0,1.203086376E-1,8.577227592E-1,9.544485092E0
2.307454279E0,6.763619930E-2,9.487023950E-1,8.984241486E0
2.309453134E0,8.678980917E-2,7.188590765E-1,9.601945877E0
2.311451988E0,3.890577704E-2,4.602852762E-1,9.812635422E0
2.313450842E0,5.386953708E-3,2.304419130E-1,1.000417137E1
2.315449696E0,3.411737457E-2,2.448071241E-1,1.023401546E1
2.317448550E0,6.284779310E-2,5.799953341E-1,9.659406662E0
2.319447404E0,-9.038111567E-2,8.385691643E-1,8.898050308E0
2.321446154E0,5.386953708E-3,5.560533404E-1,9.736021042E0
2.323444852E0,-5.207388848E-2,2.591723204E-1,1.037766743E1
2.325443290E0,-7.122749835E-2,3.405751884E-1,1.043033981E1
2.327441727E0,-1.957259923E-1,7.571662664E-1,9.573215485E0
2.329440165E0,-2.531868219E-1,9.439139962E-1,9.252392769E0
2.331438602E0,-2.100912035E-1,7.906851172E-1,9.688137054E0
2.333437040E0,-1.717839688E-1,5.704185367E-1,9.525331497E0
2.335435529E0,-1.286883354E-1,3.836708367E-1,1.002811337E1
2.337434071E0,-9.995792061E-2,5.273229480E-1,9.798270226E0
2.339432665E0,1.017535757E-2,6.422445774E-1,9.980229378E0
2.341431311E0,-7.601590455E-2,9.534908533E-1,8.869319916E0
2.343430009E0,3.890577704E-2,6.135141850E-1,9.075222015E0
2.345428759E0,5.386953708E-3,5.386953708E-3,1.044949341E1
2.347427561E0,4.369417951E-2,-9.995792061E-2,1.029147625E1
2.349426415E0,-1.855506375E-2,4.411316514E-1,9.530119896E0
2.351425269E0,2.454056777E-2,5.943605900E-1,9.190143585E0
2.353424123E0,5.386953708E-3,2.400187254E-1,9.592369080E0
2.355422977E0,1.346738487E-1,1.975216344E-2,1.047343540E1
2.357421831E0,1.011550203E-1,1.298854351E-1,9.884461403E0
2.359420686E0,2.454056777E-2,2.400187254E-1,9.721655846E0
2.361419436E0,-3.292027488E-2,3.022679687E-1,9.731232643E0
2.363418029E0,-2.813187055E-2,2.112883031E-1,9.477447510E0
2.365416623E0,-6.643909961E-2,2.454056777E-2,9.788693428E0
2.367415061E0,-3.770867735E-2,4.848258570E-2,1.018134308E1
2.369413498E0,5.985504249E-4,2.495955229E-1,9.075222015E0
2.371411936E0,-7.601590455E-2,2.017114908E-1,9.554061890E0
2.373410373E0,6.284779310E-2,2.304419130E-1,9.779116631E0
2.375408811E0,5.805939063E-2,2.783259451E-1,9.147047997E0
2.377407248E0,1.059434265E-1,1.634042710E-1,9.793481827E0
2.379405686E0,8.678980917E-2,2.639607489E-1,9.659406662E0
2.381404123E0,3.890577704E-2,1.490390599E-1,1.005205631E1
2.383402613E0,9.157821536E-2,1.155202314E-1,1.037287903E1
2.385401154E0,5.386953708E-3,2.591723204E-1,1.010951710E1
2.387399748E0,7.242459804E-2,4.554968774E-1,9.621099472E0
2.389398394E0,-2.334346622E-2,4.985924959E-1,9.348160744E0
2.391397092E0,1.975216344E-2,3.932476342E-1,9.578003883E0
2.393395842E0,5.327098817E-2,4.746504724E-1,9.611522675E0
2.395394644E0,8.678980917E-2,5.368997455E-1,9.520543098E0
2.397393498E0,1.394622475E-1,3.980360329E-1,1.021965027E1
2.399392404E0,1.490390599E-1,6.326677799E-1,9.448717117E0
2.401391311E0,1.586158574E-1,5.225345492E-1,9.443928719E0
2.403390217E0,1.777694821E-1,5.608417392E-1,1.027232265E1
2.405389123E0,1.634042710E-1,6.518214345E-1,9.185355186E0
2.407388029E0,1.681926697E-1,5.368997455E-1,9.846154213E0
2.409386936E0,2.112883031E-1,4.124012291E-1,1.005205631E1
2.411385634E0,2.304419130E-1,2.831143439E-1,9.941922188E0
2.413384123E0,2.783259451E-1,3.645172119E-1,9.898826599E0
2.415382613E0,2.160767019E-1,4.938040972E-1,9.003395081E0
2.417381102E0,2.735375464E-1,2.735375464E-1,9.683348656E0
2.419379592E0,3.214215636E-1,2.543839216E-1,9.994594574E0
2.421378081E0,3.166331649E-1,3.645172119E-1,9.103952408E0
2.423376571E0,2.831143439E-1,4.554968774E-1,9.477447510E0
2.425375061E0,1.059434265E-1,4.554968774E-1,9.879673004E0
2.427373550E0,1.586158574E-1,2.543839216E-1,1.004726696E1
2.429372092E0,1.969230920E-1,-8.559270948E-2,1.053568459E1
2.431370686E0,2.017114908E-1,7.242459804E-2,1.011430550E1
2.433369331E0,1.729810685E-1,4.746504724E-1,9.166201591E0
2.435368029E0,1.346738487E-1,6.949170232E-1,9.046490669E0
2.437366727E0,1.777694821E-1,4.698620737E-1,9.424775124E0
2.439365425E0,1.969230920E-1,1.107318252E-1,1.012388229E1
2.441364123E0,1.873462796E-1,2.639607489E-1,9.798270226E0
2.443362821E0,2.400187254E-1,3.166331649E-1,9.611522675E0
2.445361519E0,2.735375464E-1,1.059434265E-1,9.683348656E0
2.447360217E0,2.831143439E-1,1.496376097E-2,9.874884605E0
2.449358915E0,2.783259451E-1,1.250970364E-1,9.908403397E0
2.451357613E0,3.453635871E-1,1.250970364E-1,9.721655846E0
2.453356311E0,3.549404144E-1,-7.122749835E-2,1.003290176E1
2.455355009E0,3.693056107E-1,-1.286883354E-1,1.001853657E1
2.457353706E0,3.166331649E-1,6.284779310E-2,9.156624794E0
2.459352404E0,2.448071241E-1,-1.909375787E-1,9.539696693E0
2.461351102E0,3.118447661E-1,-2.771288455E-1,9.941922188E0
2.463349800E0,2.735375464E-1,-1.286883354E-1,9.429563522E0
2.465348498E0,2.208651006E-1,-1.855506375E-2,9.147047997E0
2.467347144E0,3.166331649E-1,-2.196680009E-1,9.788693428E0
2.469345790E0,1.969230920E-1,-6.075286865E-1,9.774328232E0
2.471344436E0,2.017114908E-1,-5.979518890E-1,1.048301220E1
2.473343081E0,3.070563674E-1,-4.016273320E-1,9.736021042E0
2.475341727E0,2.926911712E-1,-3.345896900E-1,9.779116631E0
2.477340373E0,3.836708367E-1,-2.914940715E-1,9.975440979E0
2.479339019E0,2.543839216E-1,-1.765723825E-1,9.568427086E0
2.481337665E0,1.059434265E-1,1.059434265E-1,9.314641953E0
2.483336311E0,6.763619930E-2,-2.334346622E-2,9.170989990E0
2.485334956E0,7.242459804E-2,-4.542997777E-1,1.057399178E1
2.487333602E0,1.496376097E-2,-2.819172442E-1,9.889249802E0
2.489332248E0,-4.189853091E-3,1.777694821E-1,9.367314339E0
2.491330946E0,-1.376665942E-2,2.495955229E-1,9.271546364E0
2.493329696E0,-4.728548229E-2,8.200141042E-2,9.611522675E0
2.495328498E0,-9.038111567E-2,-2.436100245E-1,1.057399178E1
2.497327300E0,-1.622071713E-1,-2.436100245E-1,1.041118622E1
2.499326102E0,-1.478419602E-1,2.112883031E-1,9.491812706E0
2.501324904E0,-1.238999367E-1,5.129576921E-1,9.463082314E0
2.503323706E0,-1.526303589E-1,4.938040972E-1,9.439140320E0
2.505322509E0,-1.909375787E-1,1.969230920E-1,1.000417137E1
2.507321311E0,-1.191115379E-1,1.107318252E-1,1.022922707E1
2.509319956E0,-1.622071713E-1,4.698620737E-1,8.965087891E0
2.511318446E0,-1.526303589E-1,6.135141850E-1,9.032125473E0
2.513316936E0,-1.191115379E-1,3.118447661E-1,9.946710587E0
2.515315425E0,-4.249707982E-2,1.975216344E-2,1.017655468E1
2.517313915E0,-2.334346622E-2,2.454056777E-2,1.043991661E1
2.519312404E0,-4.249707982E-2,3.453635871E-1,9.458293915E0
2.521310894E0,-1.430535465E-1,5.656301379E-1,9.075222015E0
2.523309384E0,-1.143231317E-1,4.028244317E-1,9.625887871E0
2.525307873E0,-5.207388848E-2,3.214215636E-1,9.860519409E0
2.527306363E0,1.017535757E-2,3.693056107E-1,9.975440979E0
2.529304852E0,1.059434265E-1,3.309983909E-1,9.812635422E0
2.531303342E0,1.298854351E-1,2.304419130E-1,9.985017776E0
2.533301831E0,9.157821536E-2,3.932476342E-1,9.597157478E0
2.535300321E0,1.250970364E-1,4.602852762E-1,9.659406662E0
2.537298811E0,1.586158574E-1,4.746504724E-1,9.305065155E0
2.539297300E0,1.729810685E-1,2.687491477E-1,9.673771858E0
2.541295790E0,2.304419130E-1,2.064998895E-1,9.994594574E0
2.543294279E0,2.208651006E-1,3.453635871E-1,9.884461403E0
2.545292769E0,1.442506462E-1,5.608417392E-1,9.252392769E0
2.547291259E0,1.538274586E-1,5.991489887E-1,9.453505516E0
2.549289748E0,1.346738487E-1,4.171896577E-1,9.793481827E0
2.551288238E0,1.729810685E-1,3.309983909E-1,1.011430550E1
2.553286727E0,5.327098817E-2,3.645172119E-1,1.002811337E1
2.555285217E0,8.200141042E-2,6.087257862E-1,9.487024307E0
2.557283706E0,4.369417951E-2,5.752069354E-1,9.295488358E0
2.559282196E0,-2.334346622E-2,3.501519859E-1,9.841365814E0
2.561280686E0,-4.249707982E-2,1.681926697E-1,1.063145256E1
2.563279175E0,-1.855506375E-2,4.650736749E-1,9.736021042E0
2.565277456E0,-4.249707982E-2,6.757634282E-1,8.682572365E0
2.567275738E0,-4.728548229E-2,2.352303118E-1,9.779116631E0
2.569274019E0,-6.643909961E-2,9.636662155E-2,1.025795746E1
2.571272300E0,-5.686229095E-2,2.879027426E-1,9.424775124E0
2.573270581E0,1.975216344E-2,2.256535143E-1,9.539696693E0
2.575268863E0,1.975216344E-2,1.681926697E-1,9.922768593E0
2.577267144E0,-5.207388848E-2,-4.249707982E-2,1.047343540E1
2.579265425E0,-4.189853091E-3,-1.861491799E-1,1.052131939E1
2.581263759E0,-5.686229095E-2,7.721300423E-2,9.142259598E0
2.583262144E0,-7.601590455E-2,5.177460909E-1,9.587580681E0
2.585260581E0,-2.813187055E-2,5.129576921E-1,9.357737541E0
2.587259019E0,2.454056777E-2,3.932476342E-1,9.362525940E0
2.589257456E0,-2.813187055E-2,1.681926697E-1,9.740809441E0
2.591255894E0,7.721300423E-2,2.591723204E-1,9.621099472E0
2.593254331E0,1.011550203E-1,2.687491477E-1,9.329007149E0
2.595252769E0,-2.334346622E-2,4.171896577E-1,9.510966301E0
2.597251206E0,-2.813187055E-2,2.495955229E-1,1.034414864E1
2.599249644E0,-7.122749835E-2,-2.813187055E-2,9.812635422E0
2.601248081E0,-7.601590455E-2,-2.867056429E-1,1.028668785E1
2.603246519E0,-1.376665942E-2,6.763619930E-2,1.028189945E1
2.605244956E0,-4.728548229E-2,3.549404144E-1,8.471882820E0
2.607243394E0,-7.122749835E-2,-1.376665942E-2,9.587580681E0
2.609241831E0,3.890577704E-2,-1.765723825E-1,1.072243214E1
2.611240269E0,-1.376665942E-2,1.538274586E-1,9.271546364E0
2.613238706E0,1.975216344E-2,6.284779310E-2,8.926780701E0
2.615237144E0,1.394622475E-1,-1.191115379E-1,1.025316906E1
2.617235581E0,4.369417951E-2,5.327098817E-2,9.295488358E0
2.619234019E0,-1.855506375E-2,-1.622071713E-1,9.870096207E0
2.621232456E0,5.805939063E-2,-7.122749835E-2,1.061708736E1
2.623230894E0,-8.559270948E-2,4.890156984E-1,8.543708801E0
2.625229227E0,-1.286883354E-1,2.112883031E-1,9.357737541E0
2.627227509E0,-1.478419602E-1,-3.154360652E-1,1.112465858E1
2.629225738E0,-5.207388848E-2,-4.189853091E-3,9.970652580E0
2.631223967E0,-4.728548229E-2,4.554968774E-1,9.305065155E0
2.633222196E0,-1.095347255E-1,6.997054219E-1,9.008183479E0
2.635220425E0,5.985504249E-4,6.374561787E-1,8.337807655E0
2.637218654E0,-1.143231317E-1,-7.032967210E-1,1.056920338E1
2.639216884E0,8.200141042E-2,-9.091981053E-1,1.368645382E1
2.641215165E0,4.369417951E-2,7.428010702E-1,8.993818283E0
2.643213498E0,-2.813187055E-2,1.427542806E0,7.380126953E0
2.645211884E0,-1.478419602E-1,7.954735160E-1,8.926780701E0
2.647210321E0,-1.334767491E-1,1.825578809E-1,1.066018295E1
2.649208811E0,-9.995792061E-2,3.022679687E-1,9.894038200E0
2.651207352E0,-8.080431074E-2,6.470330358E-1,9.056067467E0
2.653205946E0,2.454056777E-2,6.566098332E-1,9.424775124E0
2.655204540E0,5.805939063E-2,3.214215636E-1,1.018613148E1
2.657203134E0,6.284779310E-2,1.059434265E-1,1.066497135E1
2.659201727E0,1.346738487E-1,3.070563674E-1,1.011430550E1
2.661200321E0,1.155202314E-1,4.411316514E-1,9.419986725E0
2.663198915E0,1.107318252E-1,5.321113467E-1,9.439140320E0
2.665197509E0,7.242459804E-2,7.188590765E-1,9.041702271E0
2.667196102E0,1.394622475E-1,5.656301379E-1,9.281123161E0
2.669194696E0,8.200141042E-2,4.459200799E-1,1.018613148E1
2.671193290E0,1.203086376E-1,3.597288132E-1,1.029626465E1
2.673191884E0,1.155202314E-1,2.926911712E-1,1.007599831E1
2.675190373E0,4.848258570E-2,4.794389009E-1,1.013824749E1
2.677188498E0,1.017535757E-2,8.289923668E-1,8.677783966E0
2.679186623E0,-1.095347255E-1,4.602852762E-1,9.166201591E0
2.681184748E0,-1.334767491E-1,6.284779310E-2,1.067454815E1
2.683182873E0,-2.196680009E-1,1.969230920E-1,1.004247856E1
2.685180998E0,-2.627636492E-1,2.064998895E-1,1.001853657E1
2.687179123E0,-2.292448133E-1,5.943605900E-1,9.860519409E0
2.689177248E0,-2.196680009E-1,9.056068063E-1,8.562862396E0
2.691175373E0,-2.196680009E-1,5.608417392E-1,8.639476776E0
2.693173550E0,-1.478419602E-1,5.327098817E-2,1.058835697E1
2.695171779E0,-6.165069342E-2,1.107318252E-1,1.026274586E1
2.697170061E0,-1.382651478E-1,3.453635871E-1,9.391256332E0
2.699168394E0,-4.728548229E-2,4.028244317E-1,9.678560257E0
2.701166779E0,-3.770867735E-2,4.938040972E-1,9.458293915E0
2.703165217E0,1.496376097E-2,2.495955229E-1,9.917980194E0
2.705163706E0,8.678980917E-2,7.721300423E-2,1.064102936E1
2.707162248E0,7.242459804E-2,2.304419130E-1,9.707290649E0
2.709160842E0,-4.189853091E-3,3.262099922E-1,9.089587212E0
2.711159488E0,-2.813187055E-2,1.346738487E-1,9.558850288E0
2.713158134E0,4.369417951E-2,1.873462796E-1,9.755174637E0
2.715156779E0,1.017535757E-2,1.921346933E-1,9.127894402E0
2.717155425E0,4.369417951E-2,1.059434265E-1,9.788693428E0
2.719154019E0,4.369417951E-2,-4.728548229E-2,1.014303589E1
2.721152196E0,2.454056777E-2,3.890577704E-2,9.788693428E0
2.723150373E0,5.327098817E-2,1.777694821E-1,1.000417137E1
2.725148550E0,9.157821536E-2,2.831143439E-1,9.410409927E0
2.727146727E0,1.155202314E-1,6.284779310E-2,9.257181168E0
2.729144904E0,1.538274586E-1,-4.728548229E-2,1.032020664E1
2.731143134E0,1.538274586E-1,9.636662155E-2,9.252392769E0
2.733141415E0,2.112883031E-1,3.890577704E-2,9.635464668E0
2.735139748E0,3.022679687E-1,6.284779310E-2,1.017655468E1
2.737138134E0,2.831143439E-1,-2.334346622E-2,9.611522675E0
2.739136571E0,2.448071241E-1,-2.483984232E-1,9.913191795E0
2.741135061E0,1.394622475E-1,-1.574187577E-1,1.022922707E1
2.743133602E0,1.155202314E-1,9.157821536E-2,9.257181168E0
2.745132196E0,8.200141042E-2,5.386953708E-3,9.410409927E0
2.747130842E0,1.729810685E-1,-1.861491799E-1,1.032020664E1
2.749129540E0,1.442506462E-1,5.327098817E-2,9.568427086E0
2.751128238E0,7.242459804E-2,1.921346933E-1,9.065644264E0
2.753126936E0,1.346738487E-1,-2.813187055E-2,1.017176628E1
2.755125634E0,1.442506462E-1,-8.978256024E-3,9.922768593E0
2.757124331E0,1.346738487E-1,2.932897024E-2,9.472659111E0
2.759122717E0,1.298854351E-1,-1.143231317E-1,1.004726696E1
2.761120894E0,7.721300423E-2,-1.191115379E-1,1.000895977E1
2.763119071E0,4.369417951E-2,7.242459804E-2,9.846154213E0
2.765117248E0,1.011550203E-1,3.740940094E-1,9.439140320E0
2.767115425E0,1.017535757E-2,4.171896577E-1,8.395268440E0
2.769113602E0,8.200141042E-2,-1.376665942E-2,1.032978344E1
2.771111779E0,1.394622475E-1,-1.669955701E-1,1.062666416E1
2.773109956E0,1.394622475E-1,4.369417951E-2,9.664195061E0
2.775108186E0,1.538274586E-1,4.369417951E-2,9.927556992E0
2.777106467E0,4.848258570E-2,2.208651006E-1,9.362525940E0
2.779104800E0,1.011550203E-1,1.729810685E-1,9.549273491E0
2.781103186E0,6.284779310E-2,-1.376665942E-2,9.917980194E0
2.783101623E0,-4.189853091E-3,2.454056777E-2,9.774328232E0
2.785100113E0,7.242459804E-2,5.985504249E-4,9.827000618E0
2.787098706E0,1.059434265E-1,1.777694821E-1,9.645041466E0
2.789097352E0,1.634042710E-1,2.304419130E-1,9.716867447E0
2.791096102E0,-4.189853091E-3,2.831143439E-1,9.443928719E0
2.793094904E0,1.975216344E-2,2.926911712E-1,9.515754700E0
2.795093759E0,-2.334346622E-2,-1.286883354E-1,1.001853657E1
2.797092665E0,-2.334346622E-2,-1.765723825E-1,1.009515190E1
2.799091571E0,-3.770867735E-2,8.678980917E-2,9.228450775E0
2.801090477E0,2.932897024E-2,1.250970364E-1,9.831789017E0
2.803089279E0,-8.978256024E-3,1.777694821E-1,9.855731010E0
2.805087821E0,-6.643909961E-2,3.453635871E-1,9.415198326E0
2.807086206E0,-6.643909961E-2,1.873462796E-1,9.975440979E0
2.809084488E0,1.017535757E-2,5.386953708E-3,9.980229378E0
2.811082769E0,5.985504249E-4,2.591723204E-1,9.688137054E0
2.813081050E0,-9.038111567E-2,3.740940094E-1,9.228450775E0
2.815079331E0,-1.143231317E-1,2.352303118E-1,9.424775124E0
2.817077613E0,-3.292027488E-2,1.634042710E-1,1.027232265E1
2.819075894E0,-7.122749835E-2,-1.238999367E-1,1.023401546E1
2.821074175E0,-1.238999367E-1,1.496376097E-2,1.032978344E1
2.823072456E0,-2.813187055E-2,4.938040972E-1,9.539696693E0
2.825070738E0,-1.909375787E-1,5.943605900E-1,8.404845238E0
2.827069071E0,-2.723404467E-1,1.777694821E-1,9.678560257E0
2.829067456E0,-2.627636492E-1,-2.334346622E-2,1.041118622E1
2.831065894E0,-3.537433147E-1,1.250970364E-1,9.443928719E0
2.833064384E0,-2.914940715E-1,2.400187254E-1,9.324218750E0
2.835062925E0,-2.053027898E-1,2.256535143E-1,9.783905029E0
2.837061519E0,-6.165069342E-2,4.848258570E-2,9.994594574E0
2.839060165E0,-1.286883354E-1,1.442506462E-1,1.004726696E1
2.841058863E0,-1.861491799E-1,3.166331649E-1,9.822212219E0
2.843057613E0,-1.478419602E-1,4.411316514E-1,9.587580681E0
2.845056415E0,-1.861491799E-1,4.794389009E-1,9.132682800E0
2.847055269E0,-1.717839688E-1,3.740940094E-1,9.645041466E0
2.849054175E0,-1.047463268E-1,4.267664552E-1,9.649829865E0
2.851053081E0,4.369417951E-2,2.543839216E-1,1.033457184E1
2.853051988E0,4.848258570E-2,3.836708367E-1,9.520543098E0
2.855050894E0,1.155202314E-1,3.932476342E-1,9.477447510E0
2.857049800E0,1.442506462E-1,1.107318252E-1,1.035372543E1
2.859048706E0,1.442506462E-1,2.304419130E-1,1.001374817E1
2.861047613E0,2.017114908E-1,3.405751884E-1,9.740809441E0
2.863046519E0,1.346738487E-1,3.932476342E-1,9.506177902E0
2.865045425E0,1.155202314E-1,4.124012291E-1,9.472659111E0
2.867044331E0,1.634042710E-1,3.788824081E-1,9.544485092E0
2.869043029E0,2.304419130E-1,3.693056107E-1,9.510966301E0
2.871041467E0,2.304419130E-1,4.459200799E-1,9.980229378E0
2.873039904E0,2.687491477E-1,5.656301379E-1,9.396044731E0
2.875038342E0,3.597288132E-1,2.400187254E-1,1.005205631E1
2.877036779E0,3.262099922E-1,8.200141042E-2,1.094748688E1
2.879035217E0,3.118447661E-1,5.129576921E-1,9.783905029E0
2.881033654E0,3.453635871E-1,7.619546652E-1,9.032125473E0
2.883032092E0,2.112883031E-1,4.746504724E-1,9.400833130E0
2.885030529E0,2.543839216E-1,2.304419130E-1,9.922768593E0
2.887028967E0,1.921346933E-1,3.645172119E-1,9.381679535E0
2.889027404E0,2.017114908E-1,2.974795699E-1,9.515754700E0
2.891025842E0,1.490390599E-1,3.884592354E-1,1.018613148E1
2.893024279E0,2.454056777E-2,4.076128304E-1,9.472659111E0
2.895022717E0,-5.686229095E-2,1.059434265E-1,9.970652580E0
2.897021154E0,-8.559270948E-2,3.411737457E-2,1.023401546E1
2.899019592E0,-6.165069342E-2,1.203086376E-1,9.506177902E0
2.901018029E0,-1.574187577E-1,1.729810685E-1,9.827000618E0
2.903016467E0,-1.430535465E-1,2.591723204E-1,9.448717117E0
2.905014800E0,-6.643909961E-2,2.064998895E-1,9.319430351E0
2.907013134E0,-1.334767491E-1,-1.238999367E-1,9.975440979E0
2.909011467E0,-6.643909961E-2,-3.106476665E-1,1.055004978E1
2.911009800E0,-1.286883354E-1,9.636662155E-2,9.635464668E0
2.913008134E0,-2.819172442E-1,3.549404144E-1,8.835801125E0
2.915006467E0,-2.005143911E-1,1.729810685E-1,9.582792282E0
2.917004800E0,-1.478419602E-1,-2.334346622E-2,9.927556992E0
2.919003186E0,-8.559270948E-2,-1.382651478E-1,1.025795746E1
2.921001623E0,2.454056777E-2,-2.053027898E-1,1.026753426E1
2.923000113E0,2.932897024E-2,-8.559270948E-2,9.697713852E0
2.924998654E0,-8.978256024E-3,1.586158574E-1,9.405621529E0
2.926997248E0,4.369417951E-2,2.831143439E-1,9.324218750E0
2.928995894E0,1.155202314E-1,2.017114908E-1,9.084798813E0
2.930994540E0,9.157821536E-2,2.932897024E-2,9.300276756E0
2.932993186E0,1.203086376E-1,-1.622071713E-1,1.058835697E1
2.934991831E0,1.825578809E-1,3.890577704E-2,9.625887871E0
2.936990477E0,2.064998895E-1,2.495955229E-1,9.439140320E0
2.938989123E0,2.495955229E-1,8.678980917E-2,1.015261269E1
2.940987769E0,2.543839216E-1,8.200141042E-2,1.042076302E1
2.942986102E0,8.678980917E-2,5.081692934E-1,8.601169586E0
2.944984279E0,2.454056777E-2,2.352303118E-1,9.443928719E0
2.946982456E0,1.155202314E-1,1.059434265E-1,1.043033981E1
2.948980634E0,7.721300423E-2,1.873462796E-1,9.635464668E0
2.950978863E0,1.011550203E-1,2.017114908E-1,1.005684471E1
2.952977144E0,9.636662155E-2,2.974795699E-1,1.016697788E1
2.954975477E0,9.157821536E-2,4.650736749E-1,9.621099472E0
2.956973863E0,4.369417951E-2,4.411316514E-1,9.664195061E0
2.958972300E0,6.763619930E-2,3.788824081E-1,9.697713852E0
2.960970790E0,4.848258570E-2,3.262099922E-1,9.017760277E0
2.962969331E0,-4.728548229E-2,2.974795699E-1,9.894038200E0
2.964967925E0,5.386953708E-3,4.554968774E-1,9.688137054E0
2.966966571E0,-9.995792061E-2,5.273229480E-1,8.735244751E0
2.968965269E0,-4.728548229E-2,1.975216344E-2,1.050695419E1
2.970963967E0,8.200141042E-2,-2.771288455E-1,1.053089619E1
2.972962665E0,-1.855506375E-2,-6.165069342E-2,9.702502251E0
2.974961363E0,-9.516951442E-2,5.386953708E-3,9.822212219E0
2.976960061E0,-9.038111567E-2,2.932897024E-2,9.649829865E0
2.978958759E0,-9.995792061E-2,6.763619930E-2,9.348160744E0
2.980957196E0,-8.080431074E-2,2.932897024E-2,9.736021042E0
2.982955634E0,-2.334346622E-2,-4.189853091E-3,9.946710587E0
2.984954071E0,4.369417951E-2,1.107318252E-1,9.740809441E0
2.986952509E0,1.017535757E-2,2.400187254E-1,9.290699959E0
2.988950946E0,-4.189853091E-3,2.926911712E-1,9.645041466E0
2.990949384E0,1.490390599E-1,-1.855506375E-2,1.015740108E1
2.992947821E0,7.242459804E-2,1.496376097E-2,9.510966301E0
2.994946259E0,8.678980917E-2,1.490390599E-1,9.506177902E0
2.996944696E0,1.777694821E-1,1.011550203E-1,1.009036350E1
2.998943134E0,1.298854351E-1,3.022679687E-1,9.645041466E0
3.000941571E0,1.777694821E-1,2.879027426E-1,9.482235909E0
3.002940009E0,1.825578809E-1,1.634042710E-1,9.860519409E0
3.004938446E0,2.304419130E-1,5.805939063E-2,1.030105305E1
3.006936884E0,9.636662155E-2,1.155202314E-1,9.621099472E0
3.008935321E0,1.586158574E-1,3.836708367E-1,9.333795547E0
3.010933759E0,1.873462796E-1,4.890156984E-1,9.175778389E0
3.012932144E0,1.298854351E-1,2.352303118E-1,9.276334763E0
3.014930425E0,1.586158574E-1,5.985504249E-4,1.004247856E1
3.016928706E0,1.921346933E-1,-1.765723825E-1,1.057399178E1
3.018926988E0,2.064998895E-1,-1.574187577E-1,1.021486187E1
3.020925269E0,8.200141042E-2,5.805939063E-2,9.812635422E0
3.022923550E0,-4.189853091E-3,5.416881442E-1,9.218873978E0
3.024921831E0,-4.728548229E-2,4.842272997E-1,9.022548676E0
3.026920113E0,-8.080431074E-2,4.602852762E-1,9.247604370E0
3.028918394E0,-2.334346622E-2,1.298854351E-1,9.683348656E0
3.030916675E0,7.242459804E-2,-4.207809567E-1,1.090917969E1
3.032914956E0,1.634042710E-1,-9.516951442E-2,1.116775417E1
3.034913290E0,8.678980917E-2,4.219780564E-1,8.936357498E0
3.036911623E0,-9.995792061E-2,3.549404144E-1,9.271546364E0
3.038909956E0,-1.855506375E-2,4.848258570E-2,1.004247856E1
3.040908290E0,1.496376097E-2,1.490390599E-1,9.769539833E0
3.042906675E0,5.386953708E-3,3.884592354E-1,9.367314339E0
3.044905061E0,-1.286883354E-1,5.273229480E-1,9.137471199E0
3.046903498E0,1.017535757E-2,4.171896577E-1,9.482235909E0
3.048901988E0,1.825578809E-1,1.729810685E-1,1.016218948E1
3.050900529E0,1.634042710E-1,6.763619930E-2,9.980229378E0
3.052899071E0,9.636662155E-2,1.011550203E-1,1.024359226E1
3.054897613E0,1.873462796E-1,6.763619930E-2,1.068412495E1
3.056896154E0,2.208651006E-1,8.678980917E-2,1.010472870E1
3.058894696E0,2.064998895E-1,1.059434265E-1,1.010951710E1
3.060893238E0,1.538274586E-1,9.636662155E-2,9.343372345E0
3.062891415E0,1.298854351E-1,6.853402257E-1,8.256404877E0
3.064889384E0,-8.978256024E-3,1.609502077E0,7.562086105E0
3.066887352E0,1.538274586E-1,1.585560083E0,8.016983986E0
3.068885321E0,1.017535757E-2,1.063624144E0,8.189367294E0
3.070883290E0,1.298854351E-1,-1.717839688E-1,1.172320843E1
3.072881311E0,2.160767019E-1,-5.452794433E-1,1.291552067E1
3.074879384E0,2.160767019E-1,-1.376665942E-2,1.076552773E1
3.076877509E0,1.729810685E-1,6.470330358E-1,9.415198326E0
3.078875686E0,2.400187254E-1,8.864531517E-1,9.041702271E0
3.080873915E0,7.242459804E-2,4.602852762E-1,9.448717117E0
3.082872196E0,5.985504249E-4,1.203086376E-1,1.031541824E1
3.084870529E0,5.985504249E-4,1.921346933E-1,1.014782429E1
3.086868863E0,5.327098817E-2,3.693056107E-1,9.343372345E0
3.088867196E0,4.848258570E-2,5.656301379E-1,9.194931984E0
3.090865529E0,1.496376097E-2,3.836708367E-1,9.429563522E0
3.092863863E0,-9.038111567E-2,1.975216344E-2,9.922768593E0
3.094862196E0,-2.813187055E-2,5.386953708E-3,1.022443867E1
3.096860529E0,-3.292027488E-2,3.070563674E-1,9.764751434E0
3.098858394E0,-4.728548229E-2,4.171896577E-1,9.448717117E0
3.100856259E0,-1.191115379E-1,3.932476342E-1,9.281123161E0
3.102854123E0,1.017535757E-2,2.639607489E-1,9.922768593E0
3.104851988E0,-4.189853091E-3,2.639607489E-1,9.994594574E0
3.106849852E0,-1.191115379E-1,1.203086376E-1,9.482235909E0
3.108847717E0,-1.095347255E-1,1.681926697E-1,1.018613148E1
3.110845581E0,-4.728548229E-2,3.836708367E-1,9.745597839E0
3.112843498E0,-9.516951442E-2,5.033808947E-1,8.993818283E0
3.114841467E0,-1.047463268E-1,1.873462796E-1,9.549273491E0
3.116839488E0,-1.143231317E-1,-9.995792061E-2,1.012867069E1
3.118837561E0,-1.047463268E-1,4.848258570E-2,1.034893703E1
3.120835686E0,-1.574187577E-1,3.645172119E-1,9.419986725E0
3.122833863E0,-1.430535465E-1,3.549404144E-1,9.544485092E0
3.124832092E0,-9.995792061E-2,1.496376097E-2,9.994594574E0
3.126830373E0,-1.813607812E-1,-4.189853091E-3,1.006642151E1
3.128828706E0,-2.148796022E-1,1.634042710E-1,1.002332497E1
3.130827040E0,-1.095347255E-1,3.884592354E-1,8.883685112E0
3.132825373E0,-1.095347255E-1,2.926911712E-1,9.228450775E0
3.134823759E0,-5.207388848E-2,2.448071241E-1,9.506177902E0
3.136822196E0,-7.122749835E-2,1.107318252E-1,9.898826599E0
3.138820634E0,1.017535757E-2,-7.122749835E-2,1.058356857E1
3.140819123E0,2.454056777E-2,6.763619930E-2,9.779116631E0
3.142817613E0,1.250970364E-1,1.921346933E-1,9.659406662E0
3.144816102E0,9.157821536E-2,1.394622475E-1,9.606734276E0
3.146814592E0,5.805939063E-2,1.059434265E-1,9.640253067E0
3.148813081E0,1.298854351E-1,1.496376097E-2,1.013345909E1
3.150811467E0,1.346738487E-1,2.208651006E-1,9.453505516E0
3.152809436E0,8.200141042E-2,5.847837925E-1,9.491812706E0
3.154807404E0,3.890577704E-2,3.932476342E-1,9.506177902E0
3.156805373E0,4.369417951E-2,5.805939063E-2,9.956287384E0
3.158803342E0,7.242459804E-2,2.735375464E-1,1.005205631E1
3.160801311E0,9.157821536E-2,4.363432527E-1,9.731232643E0
3.162799279E0,-4.189853091E-3,4.363432527E-1,9.664195061E0
3.164797248E0,4.848258570E-2,6.374561787E-1,9.515754700E0
3.166795269E0,2.160767019E-1,6.326677799E-1,9.080010414E0
3.168793342E0,2.831143439E-1,1.538274586E-1,1.064102936E1
3.170791467E0,2.064998895E-1,-4.728548229E-2,9.721655846E0
3.172789644E0,2.160767019E-1,1.250970364E-1,1.035851383E1
3.174787873E0,2.064998895E-1,4.219780564E-1,9.137471199E0
3.176786154E0,1.777694821E-1,3.836708367E-1,9.238027573E0
3.178784488E0,1.873462796E-1,2.448071241E-1,1.008557510E1
3.180782873E0,1.777694821E-1,1.921346933E-1,9.903614998E0
3.182781259E0,1.969230920E-1,3.405751884E-1,9.803058624E0
3.184779644E0,2.687491477E-1,4.076128304E-1,9.606734276E0
3.186778029E0,2.208651006E-1,3.932476342E-1,9.434351921E0
3.188776415E0,1.538274586E-1,3.884592354E-1,9.491812706E0
3.190774800E0,1.298854351E-1,1.155202314E-1,1.025316906E1
3.192773186E0,1.155202314E-1,6.763619930E-2,1.009515190E1
3.194771571E0,1.442506462E-1,2.352303118E-1,9.702502251E0
3.196769956E0,1.298854351E-1,4.938040972E-1,9.424775124E0
3.198768342E0,1.250970364E-1,6.566098332E-1,9.108740807E0
3.200766727E0,6.284779310E-2,6.661866307E-1,9.630676270E0
3.202764904E0,3.890577704E-2,3.788824081E-1,1.000895977E1
3.204763081E0,2.454056777E-2,2.017114908E-1,1.005684471E1
3.206761206E0,5.985504249E-4,3.357867897E-1,1.015261269E1
3.208759227E0,1.017535757E-2,3.549404144E-1,9.649829865E0
3.210757248E0,-3.770867735E-2,4.028244317E-1,9.621099472E0
3.212755269E0,-1.095347255E-1,3.597288132E-1,9.779116631E0
3.214753290E0,-1.143231317E-1,4.219780564E-1,9.300276756E0
3.216751311E0,-1.478419602E-1,3.788824081E-1,9.726444244E0
3.218749384E0,-1.574187577E-1,3.740940094E-1,1.044470501E1
3.220747509E0,-1.717839688E-1,3.740940094E-1,9.630676270E0
3.222745686E0,-2.483984232E-1,1.969230920E-1,9.956287384E0
3.224743915E0,-1.957259923E-1,2.017114908E-1,1.003769016E1
3.226742196E0,-2.053027898E-1,4.554968774E-1,9.056067467E0
3.228740529E0,-2.148796022E-1,4.171896577E-1,9.281123161E0
3.230738915E0,-1.669955701E-1,3.309983909E-1,9.233239174E0
3.232737352E0,-1.143231317E-1,1.538274586E-1,1.000895977E1
3.234735842E0,-1.376665942E-2,2.448071241E-1,9.769539833E0
3.236734331E0,1.975216344E-2,9.157821536E-2,9.616311073E0
3.238732821E0,-7.122749835E-2,5.386953708E-3,9.827000618E0
3.240731311E0,5.386953708E-3,1.873462796E-1,9.865307808E0
3.242729800E0,3.411737457E-2,1.107318252E-1,9.731232643E0
3.244728186E0,6.284779310E-2,1.777694821E-1,1.004247856E1
3.246726519E0,7.721300423E-2,2.974795699E-1,9.405621529E0
3.248724852E0,5.327098817E-2,1.346738487E-1,9.386467934E0
3.250723186E0,4.369417951E-2,1.107318252E-1,9.937133789E0
3.252721467E0,7.721300423E-2,2.543839216E-1,9.726444244E0
3.254719644E0,1.634042710E-1,3.788824081E-1,9.434351921E0
3.256717769E0,2.208651006E-1,2.208651006E-1,9.860519409E0
3.258715894E0,1.921346933E-1,-1.143231317E-1,1.061708736E1
3.260714019E0,2.208651006E-1,-4.189853091E-3,1.029147625E1
3.262712092E0,2.400187254E-1,2.352303118E-1,9.329007149E0
3.264710113E0,2.400187254E-1,3.549404144E-1,9.319430351E0
3.266708134E0,1.969230920E-1,1.921346933E-1,9.625887871E0
3.268706154E0,1.298854351E-1,4.848258570E-2,9.467870712E0
3.270704175E0,1.777694821E-1,5.327098817E-2,9.937133789E0
3.272702196E0,1.203086376E-1,3.453635871E-1,9.453505516E0
3.274700217E0,1.203086376E-1,5.033808947E-1,8.759186745E0
3.276698238E0,1.298854351E-1,3.405751884E-1,9.961075783E0
3.278696259E0,2.017114908E-1,1.490390599E-1,1.021965027E1
3.280694279E0,1.394622475E-1,2.591723204E-1,1.016218948E1
3.282692300E0,1.107318252E-1,4.794389009E-1,9.759963036E0
3.284690321E0,1.155202314E-1,5.033808947E-1,9.051279068E0
3.286688342E0,1.538274586E-1,3.453635871E-1,9.697713852E0
3.288686363E0,1.107318252E-1,7.242459804E-2,1.075116253E1
3.290684384E0,6.284779310E-2,1.203086376E-1,1.063145256E1
3.292682404E0,5.327098817E-2,3.166331649E-1,9.482235909E0
3.294680477E0,5.985504249E-4,3.357867897E-1,9.324218750E0
3.296678602E0,-3.770867735E-2,3.980360329E-1,9.477447510E0
3.298676779E0,-5.686229095E-2,4.938040972E-1,9.051279068E0
3.300675009E0,5.985504249E-4,3.405751884E-1,9.846154213E0
3.302673290E0,-1.376665942E-2,8.200141042E-2,1.007120991E1
3.304671623E0,-1.855506375E-2,-6.643909961E-2,1.007120991E1
3.306670009E0,-1.376665942E-2,-5.207388848E-2,1.005684471E1
3.308668446E0,3.890577704E-2,3.214215636E-1,9.525331497E0
3.310666936E0,-2.334346622E-2,4.028244317E-1,9.036913872E0
3.312665477E0,-2.334346622E-2,3.309983909E-1,9.429563522E0
3.314664019E0,2.932897024E-2,2.591723204E-1,9.841365814E0
3.316662561E0,4.848258570E-2,1.969230920E-1,9.793481827E0
3.318661102E0,3.411737457E-2,1.490390599E-1,9.654618263E0
3.320659644E0,-4.189853091E-3,1.442506462E-1,1.007599831E1
3.322658186E0,2.932897024E-2,1.394622475E-1,1.002332497E1
3.324656154E0,-2.334346622E-2,9.636662155E-2,9.664195061E0
3.326654123E0,1.496376097E-2,1.011550203E-1,1.003769016E1
3.328652092E0,-1.855506375E-2,1.442506462E-1,9.458293915E0
3.330650061E0,-2.813187055E-2,1.017535757E-2,9.759963036E0
3.332648029E0,-8.978256024E-3,2.112883031E-1,9.630676270E0
3.334645998E0,-8.978256024E-3,3.453635871E-1,9.266757965E0
3.336643967E0,-2.334346622E-2,2.017114908E-1,9.664195061E0
3.338641936E0,2.454056777E-2,1.586158574E-1,9.884461403E0
3.340639904E0,-3.770867735E-2,2.926911712E-1,1.022922707E1
3.342637925E0,-4.249707982E-2,5.512649417E-1,9.707290649E0
3.344635998E0,5.386953708E-3,5.033808947E-1,9.894038200E0
3.346634123E0,5.985504249E-4,4.938040972E-1,9.372102737E0
3.348632300E0,-8.978256024E-3,5.895721912E-1,9.582792282E0
3.350630529E0,-4.189853091E-3,6.135141850E-1,9.530119896E0
3.352628811E0,-1.855506375E-2,4.171896577E-1,9.645041466E0
3.354627144E0,-5.686229095E-2,4.848258570E-2,1.028668785E1
3.356625529E0,-2.334346622E-2,6.422445774E-1,9.946710587E0
3.358623967E0,5.327098817E-2,1.010951638E0,8.749609947E0
3.360622456E0,-1.047463268E-1,6.326677799E-1,9.209297180E0
3.362620946E0,-8.978256024E-3,2.831143439E-1,1.019091988E1
3.364619436E0,-5.207388848E-2,3.788824081E-1,1.029147625E1
3.366617925E0,3.411737457E-2,5.368997455E-1,1.008078671E1
3.368616415E0,-1.855506375E-2,3.932476342E-1,9.798270226E0
3.370614904E0,-8.559270948E-2,2.639607489E-1,9.702502251E0
3.372613394E0,-1.286883354E-1,4.698620737E-1,1.000417137E1
3.374611675E0,-2.813187055E-2,6.901286244E-1,9.242815971E0
3.376609852E0,-9.516951442E-2,5.895721912E-1,8.883685112E0
3.378608029E0,-1.376665942E-2,4.124012291E-1,9.994594574E0
3.380606206E0,-4.728548229E-2,7.721300423E-2,1.023401546E1
3.382604331E0,-7.122749835E-2,1.250970364E-1,1.032499504E1
3.384602352E0,-6.643909961E-2,4.650736749E-1,9.769539833E0
3.386600373E0,-1.143231317E-1,5.560533404E-1,8.893261909E0
3.388598394E0,-1.478419602E-1,3.645172119E-1,9.204508781E0
3.390596415E0,-6.165069342E-2,1.681926697E-1,1.009515190E1
3.392594436E0,-3.770867735E-2,1.059434265E-1,1.033936024E1
3.394592456E0,2.454056777E-2,4.124012291E-1,9.903614998E0
3.396590477E0,3.411737457E-2,4.650736749E-1,9.051279068E0
3.398588550E0,1.017535757E-2,3.645172119E-1,9.199720383E0
3.400586675E0,7.242459804E-2,-8.978256024E-3,9.649829865E0
3.402584852E0,1.107318252E-1,-2.292448133E-1,1.133534813E1
3.404583029E0,1.634042710E-1,1.394622475E-1,1.026753426E1
3.406581206E0,1.729810685E-1,2.735375464E-1,9.123106003E0
3.408579384E0,1.346738487E-1,2.639607489E-1,9.491812706E0
3.410577561E0,1.155202314E-1,3.262099922E-1,8.888473511E0
3.412575738E0,7.721300423E-2,2.448071241E-1,9.223662376E0
3.414573915E0,7.242459804E-2,1.921346933E-1,1.032020664E1
3.416572092E0,2.304419130E-1,3.501519859E-1,9.913191795E0
3.418570269E0,1.586158574E-1,3.740940094E-1,9.357737541E0
3.420568446E0,1.107318252E-1,1.825578809E-1,9.798270226E0
3.422566623E0,1.250970364E-1,1.729810685E-1,1.037766743E1
3.424564800E0,8.200141042E-2,1.298854351E-1,9.654618263E0
3.426562977E0,1.059434265E-1,1.729810685E-1,1.022922707E1
3.428561154E0,1.921346933E-1,5.752069354E-1,9.276334763E0
3.430559331E0,9.157821536E-2,5.416881442E-1,8.558073997E0
3.432557509E0,4.369417951E-2,2.064998895E-1,1.010472870E1
3.434555686E0,1.496376097E-2,1.203086376E-1,1.045428181E1
3.436553863E0,1.250970364E-1,3.549404144E-1,9.807847023E0
3.438552040E0,1.155202314E-1,4.746504724E-1,9.190143585E0
3.440550217E0,2.932897024E-2,1.873462796E-1,9.774328232E0
3.442548394E0,5.327098817E-2,2.160767019E-1,1.034893703E1
3.444546415E0,1.975216344E-2,3.645172119E-1,9.252392769E0
3.446544279E0,-2.334346622E-2,3.262099922E-1,9.865307808E0
3.448542144E0,-3.770867735E-2,5.033808947E-1,9.827000618E0
3.450540009E0,3.411737457E-2,5.704185367E-1,9.458293915E0
3.452537873E0,-4.189853091E-3,4.219780564E-1,1.014782429E1
3.454535738E0,5.386953708E-3,5.943605900E-1,9.352949142E0
3.456533602E0,-5.686229095E-2,5.321113467E-1,9.697713852E0
3.458531467E0,-2.813187055E-2,2.735375464E-1,9.769539833E0
3.460529331E0,-9.516951442E-2,2.926911712E-1,1.012388229E1
3.462527196E0,-9.995792061E-2,7.236474752E-1,9.793481827E0
3.464525113E0,-7.122749835E-2,9.008184075E-1,8.146271706E0
3.466523081E0,-1.813607812E-1,4.459200799E-1,9.788693428E0
3.468521102E0,-1.574187577E-1,1.107318252E-1,1.110071659E1
3.470519175E0,-1.238999367E-1,3.309983909E-1,9.338583946E0
3.472517248E0,-1.478419602E-1,3.597288132E-1,9.779116631E0
3.474515321E0,-8.559270948E-2,2.974795699E-1,1.014782429E1
3.476513394E0,-1.286883354E-1,3.118447661E-1,9.645041466E0
3.478511467E0,-1.286883354E-1,1.777694821E-1,1.009994030E1
3.480509540E0,-1.430535465E-1,4.315548539E-1,9.659406662E0
3.482507613E0,-1.238999367E-1,7.332242727E-1,8.797493935E0
3.484505686E0,-1.238999367E-1,4.938040972E-1,9.185355186E0
3.486503759E0,-1.143231317E-1,-4.189853091E-3,1.061229897E1
3.488501831E0,-9.995792061E-2,1.107318252E-1,9.827000618E0
3.490499904E0,-4.728548229E-2,6.470330358E-1,9.601945877E0
3.492497977E0,1.975216344E-2,6.661866307E-1,9.597157478E0
3.494496050E0,-6.165069342E-2,5.321113467E-1,9.645041466E0
3.496494123E0,-6.643909961E-2,3.262099922E-1,9.870096207E0
3.498492196E0,-8.978256024E-3,9.157821536E-2,1.034893703E1
3.500490269E0,1.017535757E-2,4.848258570E-2,1.096664047E1
3.502488342E0,6.763619930E-2,7.906851172E-1,9.664195061E0
3.504486415E0,-4.189853091E-3,1.039682031E0,7.413645744E0
3.506484488E0,-1.238999367E-1,4.746504724E-1,8.754398346E0
3.508482561E0,-4.728548229E-2,5.560533404E-1,1.058356857E1
3.510480634E0,7.242459804E-2,6.949170232E-1,9.103952408E0
3.512478706E0,8.678980917E-2,4.076128304E-1,9.994594574E0
3.514476779E0,1.442506462E-1,-2.813187055E-2,1.068412495E1
3.516474852E0,7.721300423E-2,8.678980917E-2,1.040160942E1
3.518472925E0,8.200141042E-2,4.363432527E-1,9.530119896E0
3.520471050E0,4.369417951E-2,3.693056107E-1,9.281123161E0
3.522469227E0,-2.813187055E-2,2.974795699E-1,9.827000618E0
3.524467456E0,-4.189853091E-3,5.033808947E-1,9.616311073E0
3.526465738E0,-1.376665942E-2,7.571662664E-1,9.348160744E0
3.528464071E0,7.721300423E-2,5.656301379E-1,9.539696693E0
3.530462404E0,5.805939063E-2,4.028244317E-1,1.056441498E1
3.532460738E0,4.369417951E-2,5.464765429E-1,9.228450775E0
3.534459071E0,1.017535757E-2,2.974795699E-1,1.046385860E1
3.536457404E0,2.932897024E-2,3.262099922E-1,1.100973606E1
3.538455738E0,-3.292027488E-2,1.092354536E0,8.179790497E0
3.540454071E0,-8.080431074E-2,1.140238523E0,8.514978409E0
3.542452352E0,-7.601590455E-2,5.895721912E-1,9.525331497E0
3.544450477E0,-4.249707982E-2,3.980360329E-1,1.077510452E1
3.546448602E0,-4.249707982E-2,4.507084787E-1,1.043512821E1
3.548446727E0,-1.855506375E-2,6.566098332E-1,9.726444244E0
3.550444852E0,-5.686229095E-2,6.805518270E-1,9.630676270E0
3.552442977E0,-1.334767491E-1,6.422445774E-1,9.554061890E0
3.554441102E0,-1.430535465E-1,6.278793812E-1,9.142259598E0
3.556439227E0,-2.148796022E-1,2.831143439E-1,9.630676270E0
3.558437352E0,-1.622071713E-1,2.160767019E-1,1.055962658E1
3.560435477E0,-1.478419602E-1,3.597288132E-1,9.625887871E0
3.562433602E0,-1.861491799E-1,1.250970364E-1,9.688137054E0
3.564431727E0,-5.207388848E-2,1.394622475E-1,1.013824749E1
3.566429852E0,-1.574187577E-1,4.076128304E-1,8.720879555E0
3.568427977E0,-1.526303589E-1,5.512649417E-1,9.965864182E0
3.570426102E0,-9.995792061E-2,7.715315223E-1,8.921992302E0
3.572424279E0,-9.995792061E-2,4.219780564E-1,9.678560257E0
3.574422509E0,-3.770867735E-2,9.636662155E-2,1.061229897E1
3.576420790E0,-8.978256024E-3,2.017114908E-1,9.937133789E0
3.578419123E0,-9.995792061E-2,5.081692934E-1,9.305065155E0
3.580417509E0,-9.995792061E-2,4.124012291E-1,9.487024307E0
3.582415946E0,-8.080431074E-2,1.203086376E-1,1.008078671E1
3.584414436E0,-1.376665942E-2,1.634042710E-1,1.044470501E1
3.586412977E0,-3.292027488E-2,3.501519859E-1,8.902838707E0
3.588411519E0,1.017535757E-2,3.740940094E-1,9.683348656E0
3.590410061E0,-2.813187055E-2,2.974795699E-1,9.506177902E0
3.592408602E0,-4.189853091E-3,2.783259451E-1,1.012388229E1
3.594407144E0,5.327098817E-2,1.538274586E-1,1.028189945E1
3.596405686E0,-4.189853091E-3,1.442506462E-1,1.007599831E1
3.598404227E0,5.985504249E-4,2.591723204E-1,9.683348656E0
3.600402769E0,4.848258570E-2,2.926911712E-1,9.257181168E0
3.602401311E0,6.284779310E-2,3.884592354E-1,9.616311073E0
3.604399852E0,4.369417951E-2,2.400187254E-1,9.214085579E0
3.606397821E0,7.242459804E-2,5.805939063E-2,1.007599831E1
3.608395790E0,1.825578809E-1,1.681926697E-1,1.033936024E1
3.610393759E0,1.059434265E-1,5.321113467E-1,9.300276756E0
3.612391727E0,2.454056777E-2,5.321113467E-1,8.759186745E0
3.614389696E0,-5.207388848E-2,4.369417951E-2,1.060272217E1
3.616387665E0,1.975216344E-2,-5.686229095E-2,9.937133789E0
3.618385634E0,-8.978256024E-3,2.160767019E-1,9.649829865E0
3.620383654E0,-4.728548229E-2,2.495955229E-1,9.439140320E0
3.622381727E0,-4.189853091E-3,3.118447661E-1,9.745597839E0
3.624379852E0,2.932897024E-2,5.225345492E-1,9.477447510E0
3.626378029E0,2.454056777E-2,7.188590765E-1,8.447940826E0
3.628376259E0,4.369417951E-2,9.157821536E-2,1.131140614E1
3.630374540E0,1.634042710E-1,3.411737457E-2,1.078946972E1
3.632372873E0,2.932897024E-2,1.969230920E-1,9.951498985E0
3.634371206E0,4.369417951E-2,5.225345492E-1,9.424775124E0
3.636369540E0,-1.095347255E-1,5.416881442E-1,8.854954720E0
3.638367873E0,-7.601590455E-2,6.135141850E-1,9.329007149E0
3.640366206E0,5.985504249E-4,2.974795699E-1,1.034414864E1
3.642364540E0,6.284779310E-2,1.873462796E-1,9.621099472E0
3.644362873E0,-3.770867735E-2,-8.080431074E-2,9.836577415E0
3.646361206E0,-9.038111567E-2,1.203086376E-1,9.625887871E0
3.648359540E0,-4.249707982E-2,2.783259451E-1,9.285911560E0
3.650357873E0,-3.292027488E-2,3.166331649E-1,9.530119896E0
3.652355946E0,-4.728548229E-2,-1.191115379E-1,9.697713852E0
3.654354019E0,-8.080431074E-2,1.203086376E-1,1.006642151E1
3.656352092E0,-1.855506375E-2,6.470330358E-1,9.228450775E0
3.658350165E0,1.011550203E-1,7.475894690E-1,9.429563522E0
3.660348290E0,1.777694821E-1,4.554968774E-1,1.105762100E1
3.662346467E0,1.394622475E-1,1.634042710E-1,1.039682102E1
3.664344644E0,1.681926697E-1,-2.388216257E-1,1.022443867E1
3.666342821E0,7.242459804E-2,-3.776853085E-1,9.673771858E0
3.668340998E0,8.200141042E-2,-6.643909961E-2,9.463082314E0
3.670339227E0,3.411737457E-2,2.064998895E-1,8.787917137E0
3.672337456E0,1.496376097E-2,3.788824081E-1,8.462306023E0
3.674335686E0,1.107318252E-1,1.490390599E-1,9.683348656E0
3.676333967E0,1.634042710E-1,-1.813607812E-1,1.011909389E1
3.678332300E0,2.112883031E-1,-1.526303589E-1,1.047822380E1
3.680330634E0,2.160767019E-1,7.721300423E-2,9.434351921E0
3.682328967E0,1.825578809E-1,1.586158574E-1,1.003290176E1
3.684327300E0,1.155202314E-1,1.394622475E-1,9.994594574E0
3.686325634E0,1.346738487E-1,1.496376097E-2,1.020528507E1
3.688323967E0,1.490390599E-1,1.586158574E-1,9.616311073E0
3.690322300E0,1.496376097E-2,1.729810685E-1,9.032125473E0
3.692320634E0,5.327098817E-2,1.298854351E-1,9.865307808E0
3.694318967E0,7.242459804E-2,3.836708367E-1,9.142259598E0
3.696317300E0,9.157821536E-2,4.028244317E-1,9.319430351E0
3.698315634E0,8.200141042E-2,8.678980917E-2,1.071764374E1
3.700313967E0,2.454056777E-2,-9.516951442E-2,1.039682102E1
3.702312300E0,-3.770867735E-2,9.636662155E-2,1.017655468E1
3.704310634E0,-2.813187055E-2,1.873462796E-1,9.352949142E0
3.706308967E0,-3.292027488E-2,3.836708367E-1,9.123106003E0
3.708307300E0,1.017535757E-2,1.921346933E-1,8.888473511E0
3.710305634E0,-8.978256024E-3,-1.765723825E-1,9.951498985E0
3.712303967E0,-6.643909961E-2,-1.669955701E-1,9.865307808E0
3.714302300E0,-1.717839688E-1,-3.292027488E-2,1.007599831E1
3.716300634E0,-1.478419602E-1,3.740940094E-1,8.596381187E0
3.718298967E0,-1.478419602E-1,-7.601590455E-2,9.242815971E0
3.720297300E0,-1.813607812E-1,-1.062427044E0,1.257554436E1
3.722295634E0,-9.038111567E-2,-4.590881765E-1,1.115338898E1
3.724293967E0,5.985504249E-4,4.650736749E-1,7.518990517E0
3.726292300E0,-1.478419602E-1,3.262099922E-1,8.562862396E0
3.728290634E0,-1.574187577E-1,-2.100912035E-1,1.021486187E1
3.730288967E0,-1.813607812E-1,-4.495113790E-1,1.089960289E1
3.732287300E0,-9.516951442E-2,-2.914940715E-1,9.831789017E0
3.734285634E0,-1.855506375E-2,2.932897024E-2,8.998606682E0
3.736283967E0,-9.038111567E-2,1.729810685E-1,8.835801125E0
3.738282300E0,-9.516951442E-2,7.242459804E-2,8.864531517E0
3.740280634E0,5.386953708E-3,-4.112041295E-1,1.048780060E1
3.742278967E0,1.394622475E-1,-4.590881765E-1,9.855731010E0
3.744277300E0,3.890577704E-2,-3.872621357E-1,9.850942612E0
3.746275634E0,7.242459804E-2,-4.064157307E-1,1.052610779E1
3.748273967E0,1.634042710E-1,-2.627636492E-1,9.736021042E0
3.750272196E0,1.538274586E-1,-1.191115379E-1,9.731232643E0
3.752270425E0,1.490390599E-1,-8.559270948E-2,9.238027573E0
3.754268654E0,1.729810685E-1,-9.038111567E-2,9.467870712E0
3.756266884E0,2.591723204E-1,-2.340332121E-1,1.005684471E1
3.758265113E0,3.166331649E-1,-2.196680009E-1,1.036809063E1
3.760263342E0,3.693056107E-1,-3.681085110E-1,1.030105305E1
3.762261571E0,2.974795699E-1,-2.579752207E-1,9.803058624E0
3.764259800E0,3.309983909E-1,-9.516951442E-2,9.894038200E0
3.766258029E0,3.740940094E-1,1.490390599E-1,8.773551941E0
3.768256259E0,3.166331649E-1,1.921346933E-1,9.386467934E0
3.770254488E0,3.070563674E-1,1.155202314E-1,9.137471199E0
3.772252717E0,2.256535143E-1,-1.622071713E-1,1.002811337E1
3.774250946E0,2.783259451E-1,-3.154360652E-1,1.064102936E1
3.776249175E0,3.597288132E-1,-8.559270948E-2,9.530119896E0
3.778247404E0,3.597288132E-1,3.645172119E-1,8.955511093E0
3.780245634E0,3.980360329E-1,3.309983909E-1,8.816647530E0
3.782243863E0,2.926911712E-1,-8.978256024E-3,1.007120991E1
3.784242092E0,3.357867897E-1,-8.559270948E-2,9.932345390E0
3.786240321E0,3.262099922E-1,-2.436100245E-1,1.050216579E1
3.788238550E0,3.357867897E-1,7.721300423E-2,9.707290649E0
3.790236779E0,4.076128304E-1,1.490390599E-1,9.530119896E0
3.792235009E0,4.411316514E-1,-8.978256024E-3,9.750386238E0
3.794233238E0,4.028244317E-1,-6.165069342E-2,9.783905029E0
3.796231519E0,2.879027426E-1,-1.669955701E-1,9.788693428E0
3.798229800E0,2.256535143E-1,-3.681085110E-1,1.038245583E1
3.800228081E0,2.879027426E-1,-3.292027488E-2,9.836577415E0
3.802226363E0,2.352303118E-1,8.200141042E-2,8.744821548E0
3.804224696E0,1.250970364E-1,-2.334346622E-2,1.011909389E1
3.806223081E0,1.729810685E-1,-4.728548229E-2,1.003290176E1
3.808221519E0,7.721300423E-2,5.985504249E-4,9.549273491E0
3.810220009E0,4.848258570E-2,6.284779310E-2,9.664195061E0
3.812218498E0,4.369417951E-2,-1.478419602E-1,1.020049667E1
3.814216988E0,1.017535757E-2,1.346738487E-1,9.472659111E0
3.816215477E0,7.242459804E-2,3.740940094E-1,8.706514359E0
3.818213967E0,5.805939063E-2,-7.122749835E-2,9.903614998E0
3.820212456E0,-2.813187055E-2,-1.765723825E-1,1.103367901E1
3.822210946E0,8.200141042E-2,-9.995792061E-2,9.831789017E0
3.824209436E0,-2.813187055E-2,1.017535757E-2,9.937133789E0
3.826207925E0,1.496376097E-2,1.873462796E-1,9.587580681E0
3.828206415E0,-1.191115379E-1,1.873462796E-1,9.238027573E0
3.830204904E0,-1.047463268E-1,1.394622475E-1,9.769539833E0
3.832203394E0,-9.038111567E-2,1.346738487E-1,9.558850288E0
3.834201884E0,-8.559270948E-2,-8.080431074E-2,9.688137054E0
3.836200217E0,-6.643909961E-2,1.107318252E-1,9.458293915E0
3.838198394E0,1.017535757E-2,2.687491477E-1,8.878896713E0
3.840196571E0,1.496376097E-2,-2.436100245E-1,9.783905029E0
3.842194748E0,1.496376097E-2,-5.357026458E-1,1.122042656E1
3.844192925E0,-8.559270948E-2,-2.388216257E-1,9.396044731E0
3.846191102E0,-1.430535465E-1,-1.574187577E-1,9.228450775E0
3.848189279E0,-1.957259923E-1,-3.058592677E-1,9.903614998E0
3.850187456E0,-1.430535465E-1,-4.351461530E-1,9.855731010E0
3.852185634E0,-1.813607812E-1,-1.143231317E-1,1.008557510E1
3.854183811E0,-1.286883354E-1,1.011550203E-1,9.113529205E0
3.856181988E0,-2.005143911E-1,5.985504249E-4,9.204508781E0
3.858180165E0,-3.298012912E-1,-2.292448133E-1,9.822212219E0
3.860178238E0,-2.867056429E-1,-5.596446395E-1,1.022443867E1
3.862176311E0,-2.723404467E-1,-4.973953962E-1,1.096185207E1
3.864174384E0,-1.813607812E-1,1.155202314E-1,9.175778389E0
3.866172456E0,-2.579752207E-1,2.304419130E-1,8.567650795E0
3.868170529E0,-2.340332121E-1,-3.393780887E-1,1.024838066E1
3.870168602E0,-2.244564146E-1,-4.734533727E-1,1.067454815E1
3.872166675E0,-1.813607812E-1,-2.531868219E-1,9.850942612E0
3.874164748E0,-2.053027898E-1,5.805939063E-2,9.209297180E0
3.876162821E0,-2.005143911E-1,1.777694821E-1,9.357737541E0
3.878160894E0,-2.723404467E-1,-5.207388848E-2,9.822212219E0
3.880158967E0,-2.100912035E-1,-9.516951442E-2,9.683348656E0
3.882157040E0,-1.622071713E-1,1.017535757E-2,9.803058624E0
3.884155113E0,-1.526303589E-1,2.932897024E-2,9.697713852E0
3.886153186E0,-8.559270948E-2,1.975216344E-2,9.750386238E0
3.888151259E0,-9.516951442E-2,-1.574187577E-1,1.037766743E1
3.890149331E0,3.411737457E-2,1.017535757E-2,9.659406662E0
3.892147404E0,4.848258570E-2,1.107318252E-1,9.477447510E0
3.894145477E0,7.721300423E-2,1.538274586E-1,9.558850288E0
3.896143550E0,7.721300423E-2,6.763619930E-2,9.836577415E0
3.898141623E0,9.157821536E-2,7.721300423E-2,9.692925453E0
3.900139696E0,8.200141042E-2,2.112883031E-1,9.640253067E0
3.902137769E0,1.011550203E-1,1.634042710E-1,9.367314339E0
3.904135842E0,7.721300423E-2,-4.249707982E-2,1.002811337E1
3.906133915E0,1.538274586E-1,1.059434265E-1,1.040639782E1
3.908132040E0,1.681926697E-1,2.543839216E-1,8.917203903E0
3.910130217E0,1.586158574E-1,1.873462796E-1,9.850942612E0
3.912128446E0,1.586158574E-1,1.298854351E-1,1.033936024E1
3.914126675E0,2.064998895E-1,2.208651006E-1,9.645041466E0
3.916124904E0,1.634042710E-1,3.884592354E-1,9.645041466E0
3.918123134E0,1.346738487E-1,4.890156984E-1,8.821435928E0
3.920121363E0,4.848258570E-2,2.735375464E-1,9.970652580E0
3.922119592E0,1.394622475E-1,2.448071241E-1,1.015740108E1
3.924117821E0,2.112883031E-1,4.602852762E-1,9.544485092E0
3.926116050E0,2.017114908E-1,4.028244317E-1,9.692925453E0
3.928114279E0,1.873462796E-1,5.225345492E-1,1.006163311E1
3.930112509E0,2.304419130E-1,7.092822790E-1,9.204508781E0
3.932110790E0,2.112883031E-1,4.554968774E-1,9.726444244E0
3.934109123E0,1.921346933E-1,4.602852762E-1,1.023880386E1
3.936107456E0,1.729810685E-1,6.470330358E-1,9.118317604E0
3.938105790E0,4.369417951E-2,5.656301379E-1,9.391256332E0
3.940104123E0,7.721300423E-2,7.044938207E-1,1.001374817E1
3.942102456E0,1.298854351E-1,8.337807655E-1,9.228450775E0
3.944100790E0,4.369417951E-2,6.230909824E-1,9.922768593E0
3.946099123E0,3.411737457E-2,6.805518270E-1,1.029147625E1
3.948097509E0,-1.376665942E-2,6.949170232E-1,9.496601105E0
3.950095894E0,-1.047463268E-1,6.709750295E-1,1.019570827E1
3.952094279E0,5.985504249E-4,9.295488000E-1,9.419986725E0
3.954092717E0,-5.207388848E-2,9.678560495E-1,9.137471199E0
3.956091154E0,-8.080431074E-2,7.475894690E-1,9.894038200E0
3.958089592E0,-7.122749835E-2,5.895721912E-1,9.937133789E0
3.960088029E0,-1.238999367E-1,3.788824081E-1,1.070806694E1
3.962086467E0,-1.855506375E-2,9.917980433E-1,9.740809441E0
3.964084904E0,-1.855506375E-2,1.135450125E0,8.309077263E0
3.966083342E0,-1.334767491E-1,7.428010702E-1,9.874884605E0
3.968081779E0,-1.526303589E-1,6.374561787E-1,1.039203262E1
3.970080217E0,-1.382651478E-1,8.242039084E-1,9.472659111E0
3.972078654E0,-1.765723825E-1,9.534908533E-1,9.434351921E0
3.974077092E0,-8.559270948E-2,9.774328470E-1,9.707290649E0
3.976075061E0,-2.771288455E-1,7.619546652E-1,9.506177902E0
3.978073029E0,-2.819172442E-1,5.177460909E-1,1.063624096E1
3.980070998E0,-3.010708690E-1,6.661866307E-1,1.012388229E1
3.982068967E0,-3.728969097E-1,9.391255975E-1,1.002811337E1
3.984066936E0,-3.585317135E-1,6.135141850E-1,9.759963036E0
3.986064904E0,-4.255693555E-1,2.448071241E-1,9.424775124E0
3.988062873E0,-2.148796022E-1,4.794389009E-1,9.855731010E0
3.990060894E0,-2.675520480E-1,8.577227592E-1,8.687360764E0
3.992058967E0,-2.914940715E-1,7.571662664E-1,8.725667953E0
3.994057092E0,-3.298012912E-1,2.735375464E-1,1.100015926E1
3.996055217E0,-2.627636492E-1,3.118447661E-1,9.894038200E0
3.998053394E0,-2.675520480E-1,3.932476342E-1,9.654618263E0
4.000051623E0,-3.298012912E-1,8.146271110E-1,9.405621529E0
4.002049852E0,-4.112041295E-1,8.337807655E-1,8.328230858E0
4.004048081E0,-4.495113790E-1,3.597288132E-1,1.065060616E1
4.006046311E0,-2.867056429E-1,3.118447661E-1,1.052131939E1
4.008044540E0,-2.819172442E-1,6.613982320E-1,9.683348656E0
4.010042769E0,-2.962824702E-1,6.997054219E-1,8.850166321E0
4.012040998E0,-2.962824702E-1,2.926911712E-1,1.004726696E1
4.014039279E0,-2.819172442E-1,2.639607489E-1,1.010951710E1
4.016037613E0,-2.483984232E-1,4.938040972E-1,9.151836395E0
4.018035998E0,-3.202244639E-1,2.879027426E-1,9.654618263E0
4.020034384E0,-1.717839688E-1,1.298854351E-1,1.035372543E1
4.022032769E0,-9.995792061E-2,2.879027426E-1,1.006163311E1
4.024031154E0,-1.813607812E-1,3.645172119E-1,9.860519409E0
4.026029540E0,-1.669955701E-1,5.225345492E-1,8.840589523E0
4.028027925E0,2.932897024E-2,2.304419130E-1,1.032020664E1
4.030026311E0,1.975216344E-2,2.735375464E-1,9.822212219E0
4.032024696E0,3.411737457E-2,2.352303118E-1,9.520543098E0
4.034022925E0,5.386953708E-3,1.586158574E-1,1.017176628E1
4.036020894E0,-2.813187055E-2,3.645172119E-1,9.467870712E0
4.038018863E0,-1.855506375E-2,4.411316514E-1,9.036913872E0
4.040016831E0,-1.238999367E-1,2.256535143E-1,1.035372543E1
4.042014800E0,-1.376665942E-2,5.386953708E-3,9.932345390E0
4.044012769E0,1.496376097E-2,2.639607489E-1,1.005205631E1
4.046010738E0,1.496376097E-2,2.926911712E-1,9.238027573E0
4.048008759E0,7.242459804E-2,1.203086376E-1,9.822212219E0
4.050006831E0,1.107318252E-1,1.969230920E-1,9.563638687E0
4.052004956E0,4.369417951E-2,8.678980917E-2,9.817423820E0
4.054003134E0,9.157821536E-2,5.805939063E-2,1.037766743E1
4.056001363E0,6.284779310E-2,4.411316514E-1,9.515754700E0
4.057999644E0,1.203086376E-1,7.284358740E-1,7.993042469E0
4.059997977E0,1.059434265E-1,-2.867056429E-1,9.252392769E0
4.061996363E0,2.974795699E-1,-1.148618221E0,1.396896935E1
4.063994800E0,3.405751884E-1,2.735375464E-1,9.214085579E0
4.065993290E0,2.112883031E-1,7.811083198E-1,7.696161270E0
4.067991831E0,1.729810685E-1,2.831143439E-1,9.343372345E0
4.069990425E0,1.250970364E-1,9.157821536E-2,9.573215485E0
4.071989019E0,4.369417951E-2,-2.771288455E-1,1.021965027E1
4.073987613E0,9.636662155E-2,-3.585317135E-1,1.054526138E1
4.075986206E0,3.890577704E-2,4.369417951E-2,9.180566788E0
4.077984800E0,1.017535757E-2,8.678980917E-2,9.510966301E0
4.079983134E0,-4.728548229E-2,1.969230920E-1,9.683348656E0
4.081981467E0,-9.516951442E-2,-1.238999367E-1,9.324218750E0
4.083979800E0,-1.286883354E-1,-1.813607812E-1,1.012388229E1
4.085978081E0,-6.165069342E-2,-1.909375787E-1,9.510966301E0
4.087976311E0,-8.559270948E-2,-1.622071713E-1,1.022443867E1
4.089974384E0,-1.047463268E-1,6.763619930E-2,9.027337074E0
4.091972456E0,-5.207388848E-2,-7.601590455E-2,9.515754700E0
4.093970529E0,-7.601590455E-2,-1.382651478E-1,9.989806175E0
