"Time (s)","Acceleration x (m/s^2)","Acceleration y (m/s^2)","Acceleration z (m/s^2)"
1.869616300E-2,6.763619930E-2,1.442506462E-1,9.927556992E0
2.069616300E-2,5.985504249E-4,1.586158574E-1,9.999382973E0
2.218371500E-2,-2.813187055E-2,1.777694821E-1,9.965864182E0
2.414892300E-2,-9.038111567E-2,1.155202314E-1,9.884461403E0
2.575673600E-2,-1.143231317E-1,1.203086376E-1,9.807847023E0
2.758340200E-2,-7.601590455E-2,8.678980917E-2,9.726444244E0
2.954861100E-2,-1.376665942E-2,8.200141042E-2,9.692925453E0
3.151381900E-2,6.763619930E-2,8.678980917E-2,9.673771858E0
3.347902700E-2,1.155202314E-1,9.636662155E-2,9.678560257E0
3.544423600E-2,1.586158574E-1,1.203086376E-1,9.664195061E0
3.740944400E-2,2.017114908E-1,1.298854351E-1,9.659406662E0
3.937465200E-2,2.352303118E-1,1.298854351E-1,9.654618263E0
4.133986100E-2,2.304419130E-1,1.346738487E-1,9.726444244E0
4.330506900E-2,2.304419130E-1,1.346738487E-1,9.755174637E0
4.527027700E-2,2.448071241E-1,1.394622475E-1,9.807847023E0
4.723548600E-2,2.495955229E-1,1.442506462E-1,9.817423820E0
4.920069400E-2,2.495955229E-1,1.586158574E-1,9.812635422E0
5.116590200E-2,1.969230920E-1,1.681926697E-1,9.803058624E0
5.313111100E-2,1.873462796E-1,1.681926697E-1,9.774328232E0
5.509631900E-2,1.777694821E-1,1.538274586E-1,9.759963036E0
5.706152700E-2,1.634042710E-1,1.634042710E-1,9.731232643E0
5.902673600E-2,1.394622475E-1,1.586158574E-1,9.721655846E0
6.099194400E-2,1.298854351E-1,1.298854351E-1,9.692925453E0
6.295715200E-2,1.059434265E-1,1.586158574E-1,9.688137054E0
6.492236100E-2,1.107318252E-1,1.681926697E-1,9.673771858E0
6.688756900E-2,1.155202314E-1,1.777694821E-1,9.673771858E0
6.885277700E-2,1.250970364E-1,1.729810685E-1,9.721655846E0
7.081798600E-2,1.873462796E-1,2.831143439E-1,9.501389503E0
7.278319400E-2,1.538274586E-1,1.921346933E-1,9.563638687E0
7.474840200E-2,1.107318252E-1,1.442506462E-1,9.716867447E0
7.671361100E-2,1.250970364E-1,1.538274586E-1,9.769539833E0
7.867881900E-2,1.298854351E-1,1.969230920E-1,9.783905029E0
8.064439200E-2,1.059434265E-1,1.442506462E-1,9.803058624E0
8.261163200E-2,1.107318252E-1,1.729810685E-1,9.817423820E0
8.458173600E-2,1.059434265E-1,2.064998895E-1,9.769539833E0
8.655574600E-2,1.155202314E-1,1.681926697E-1,9.740809441E0
8.853444400E-2,1.346738487E-1,1.490390599E-1,9.750386238E0
9.051845500E-2,1.825578809E-1,1.538274586E-1,9.702502251E0
9.250814200E-2,1.681926697E-1,1.394622475E-1,9.716867447E0
9.450366300E-2,1.777694821E-1,1.059434265E-1,9.707290649E0
9.650491300E-2,1.873462796E-1,1.729810685E-1,9.659406662E0
9.851152700E-2,1.777694821E-1,1.538274586E-1,9.630676270E0
1.005229860E-1,1.921346933E-1,1.394622475E-1,9.582792282E0
1.025385590E-1,1.681926697E-1,1.107318252E-1,9.578003883E0
1.045574130E-1,1.681926697E-1,1.298854351E-1,9.597157478E0
1.065786110E-1,1.681926697E-1,1.298854351E-1,9.544485092E0
1.086011110E-1,2.064998895E-1,1.442506462E-1,9.563638687E0
1.106239230E-1,1.969230920E-1,1.155202314E-1,9.549273491E0
1.126304340E-1,2.160767019E-1,1.155202314E-1,9.587580681E0
1.146288190E-1,2.304419130E-1,1.298854351E-1,9.573215485E0
1.166272050E-1,2.591723204E-1,1.107318252E-1,9.568427086E0
1.186255900E-1,2.639607489E-1,1.298854351E-1,9.616311073E0
1.206239750E-1,2.448071241E-1,1.729810685E-1,9.659406662E0
1.226223610E-1,1.969230920E-1,1.873462796E-1,9.673771858E0
1.246207460E-1,1.681926697E-1,2.208651006E-1,9.678560257E0
1.266191320E-1,1.107318252E-1,2.400187254E-1,9.688137054E0
1.286175170E-1,5.805939063E-2,2.448071241E-1,9.712079048E0
1.306159020E-1,1.496376097E-2,3.357867897E-1,9.721655846E0
1.326142880E-1,-4.249707982E-2,4.028244317E-1,9.726444244E0
1.346126730E-1,-8.080431074E-2,4.650736749E-1,9.702502251E0
1.366110590E-1,-1.143231317E-1,5.416881442E-1,9.716867447E0
1.386094440E-1,-1.526303589E-1,5.752069354E-1,9.731232643E0
1.406078300E-1,-1.382651478E-1,5.943605900E-1,9.750386238E0
1.426062150E-1,-1.574187577E-1,6.326677799E-1,9.759963036E0
1.446046000E-1,-1.430535465E-1,6.135141850E-1,9.774328232E0
1.466030380E-1,-2.483984232E-1,4.985924959E-1,9.453505516E0
1.486015270E-1,-2.627636492E-1,4.363432527E-1,9.372102737E0
1.506000170E-1,-7.601590455E-2,3.405751884E-1,9.779116631E0
1.525985070E-1,-3.770867735E-2,4.794389009E-1,9.985017776E0
1.545969960E-1,-7.601590455E-2,5.464765429E-1,9.860519409E0
1.565954860E-1,-7.122749835E-2,6.230909824E-1,9.625887871E0
1.585939750E-1,-4.728548229E-2,7.475894690E-1,9.592369080E0
1.605924650E-1,5.985504249E-4,7.715315223E-1,9.659406662E0
1.625909550E-1,3.890577704E-2,7.811083198E-1,9.640253067E0
1.645894440E-1,2.932897024E-2,7.044938207E-1,9.558850288E0
1.665879340E-1,1.975216344E-2,5.847837925E-1,9.601945877E0
1.685864230E-1,5.805939063E-2,5.464765429E-1,9.750386238E0
1.705849130E-1,2.932897024E-2,5.943605900E-1,9.822212219E0
1.725834020E-1,-2.334346622E-2,6.613982320E-1,9.836577415E0
1.745818920E-1,-5.207388848E-2,6.997054219E-1,9.803058624E0
1.765803820E-1,-6.643909961E-2,7.523778677E-1,9.755174637E0
1.785788710E-1,-1.095347255E-1,7.906851172E-1,9.755174637E0
1.805773610E-1,-1.478419602E-1,7.858967185E-1,9.688137054E0
1.825758500E-1,-2.292448133E-1,6.997054219E-1,9.578003883E0
1.845743400E-1,-1.717839688E-1,6.135141850E-1,9.716867447E0
1.865728300E-1,-1.574187577E-1,7.140706778E-1,9.807847023E0
1.885713190E-1,-2.100912035E-1,8.098387122E-1,9.798270226E0
1.905698090E-1,-2.340332121E-1,9.247604012E-1,9.707290649E0
1.925682980E-1,-2.148796022E-1,9.487023950E-1,9.750386238E0
1.945667880E-1,-2.196680009E-1,1.015740037E0,9.774328232E0
1.965652770E-1,-2.244564146E-1,1.020528436E0,9.774328232E0
1.985637670E-1,-2.100912035E-1,9.774328470E-1,9.822212219E0
2.005622050E-1,-1.909375787E-1,9.965864420E-1,9.745597839E0
2.025606420E-1,-2.340332121E-1,7.906851172E-1,9.697713852E0
2.045590800E-1,-1.574187577E-1,6.470330358E-1,9.740809441E0
2.065575170E-1,-8.080431074E-2,5.943605900E-1,1.005205631E1
2.085559550E-1,-1.143231317E-1,6.039373875E-1,1.010951710E1
2.105543920E-1,-1.143231317E-1,6.661866307E-1,9.980229378E0
2.125528300E-1,-9.995792061E-2,7.811083198E-1,9.803058624E0
2.145512670E-1,-7.601590455E-2,8.816647530E-1,9.831789017E0
2.165497050E-1,-6.643909961E-2,8.577227592E-1,9.941922188E0
2.185481420E-1,-9.516951442E-2,8.385691643E-1,9.917980194E0
2.205465800E-1,-1.047463268E-1,9.151836038E-1,9.769539833E0
2.225449650E-1,-1.191115379E-1,9.678560495E-1,9.659406662E0
2.245431420E-1,-1.334767491E-1,9.487023950E-1,9.688137054E0
2.265413190E-1,-1.622071713E-1,8.960300088E-1,9.649829865E0
2.285394960E-1,-2.292448133E-1,8.146271110E-1,9.664195061E0
2.305376730E-1,-2.005143911E-1,6.901286244E-1,9.779116631E0
2.325358500E-1,-1.526303589E-1,7.858967185E-1,9.975440979E0
2.345340270E-1,-1.669955701E-1,8.433575630E-1,9.898826599E0
2.365322050E-1,-2.340332121E-1,9.199720025E-1,9.755174637E0
2.385303820E-1,-2.100912035E-1,1.030105233E0,9.736021042E0
2.405285590E-1,-1.717839688E-1,1.106719732E0,9.745597839E0
2.425267360E-1,-1.669955701E-1,1.135450125E0,9.850942612E0
2.445249650E-1,-9.995792061E-2,1.192911029E0,9.803058624E0
2.465232460E-1,-1.095347255E-1,1.116296530E0,9.822212219E0
2.485215800E-1,-8.559270948E-2,1.087566137E0,9.827000618E0
2.505199650E-1,-3.770867735E-2,1.049258947E0,9.807847023E0
2.525184020E-1,5.386953708E-3,9.534908533E-1,9.850942612E0
2.545168920E-1,1.975216344E-2,9.630676508E-1,9.831789017E0
2.565153820E-1,5.985504249E-4,8.768763542E-1,9.807847023E0
2.585138710E-1,-1.855506375E-2,8.433575630E-1,9.764751434E0
2.605123610E-1,-1.376665942E-2,7.475894690E-1,9.683348656E0
2.625108500E-1,-2.813187055E-2,6.709750295E-1,9.716867447E0
2.645093400E-1,-4.728548229E-2,7.092822790E-1,9.625887871E0
2.665078300E-1,5.386953708E-3,7.332242727E-1,9.611522675E0
2.685061630E-1,5.327098817E-2,6.901286244E-1,9.688137054E0
2.705041840E-1,1.496376097E-2,6.039373875E-1,9.860519409E0
2.725022050E-1,-2.813187055E-2,6.087257862E-1,9.827000618E0
2.745002250E-1,5.386953708E-3,6.805518270E-1,9.668983459E0
2.764982460E-1,-3.770867735E-2,6.709750295E-1,9.482235909E0
2.784963190E-1,-5.207388848E-2,6.230909824E-1,9.396044731E0
2.804944440E-1,-7.122749835E-2,7.044938207E-1,9.386467934E0
2.824926210E-1,-1.855506375E-2,6.183025837E-1,9.520543098E0
2.844908500E-1,3.890577704E-2,5.416881442E-1,9.822212219E0
2.864891320E-1,1.975216344E-2,5.033808947E-1,1.007599831E1
2.884874650E-1,7.721300423E-2,6.039373875E-1,9.994594574E0
2.904858500E-1,2.932897024E-2,6.566098332E-1,9.779116631E0
2.924842880E-1,5.985504249E-4,7.188590765E-1,9.563638687E0
2.944827770E-1,-7.601590455E-2,7.140706778E-1,9.611522675E0
2.964812670E-1,-1.047463268E-1,6.901286244E-1,9.774328232E0
2.984797570E-1,-1.047463268E-1,7.188590765E-1,9.788693428E0
3.004782460E-1,-1.143231317E-1,7.475894690E-1,9.831789017E0
3.024763710E-1,-7.601590455E-2,7.092822790E-1,9.961075783E0
3.044744440E-1,-3.770867735E-2,7.332242727E-1,9.894038200E0
3.064725170E-1,1.496376097E-2,8.577227592E-1,9.764751434E0
3.084705900E-1,1.017535757E-2,8.481459618E-1,9.697713852E0
3.104685590E-1,-4.249707982E-2,7.188590765E-1,9.850942612E0
3.124664750E-1,-3.292027488E-2,6.661866307E-1,1.005684471E1
3.144643920E-1,5.805939063E-2,7.140706778E-1,9.941922188E0
3.164623090E-1,4.848258570E-2,7.236474752E-1,9.764751434E0
3.184602250E-1,-3.770867735E-2,7.811083198E-1,9.625887871E0
3.204581420E-1,-6.165069342E-2,7.044938207E-1,9.573215485E0
3.224560590E-1,-3.292027488E-2,5.225345492E-1,9.736021042E0
3.244539750E-1,2.454056777E-2,5.177460909E-1,9.788693428E0
3.264518920E-1,5.805939063E-2,5.752069354E-1,9.525331497E0
3.284498090E-1,9.636662155E-2,5.656301379E-1,9.458293915E0
3.304477770E-1,8.678980917E-2,4.554968774E-1,9.563638687E0
3.324457980E-1,1.681926697E-1,3.645172119E-1,9.850942612E0
3.344438710E-1,1.873462796E-1,3.309983909E-1,1.001853657E1
3.364419960E-1,2.208651006E-1,3.645172119E-1,9.917980194E0
3.384401730E-1,2.448071241E-1,3.645172119E-1,9.817423820E0
3.404384020E-1,2.543839216E-1,2.543839216E-1,1.012867069E1
3.424366840E-1,2.304419130E-1,4.746504724E-1,1.008557510E1
3.444350170E-1,-3.770867735E-2,9.534908533E-1,9.697713852E0
3.464334020E-1,-9.516951442E-2,1.001374841E0,9.180566788E0
3.484318400E-1,-1.047463268E-1,9.726444483E-1,9.012971878E0
3.504303300E-1,-1.478419602E-1,9.295488000E-1,9.156624794E0
3.524288710E-1,-1.574187577E-1,7.475894690E-1,9.386467934E0
3.544274130E-1,-1.143231317E-1,5.512649417E-1,9.549273491E0
3.564259550E-1,-8.080431074E-2,3.166331649E-1,9.740809441E0
3.584244960E-1,1.017535757E-2,1.729810685E-1,9.764751434E0
3.604229340E-1,1.496376097E-2,8.200141042E-2,9.850942612E0
3.624212150E-1,4.848258570E-2,5.386953708E-3,9.898826599E0
3.644194960E-1,1.442506462E-1,1.496376097E-2,9.860519409E0
3.664176730E-1,1.681926697E-1,7.721300423E-2,9.745597839E0
3.684158500E-1,1.729810685E-1,1.586158574E-1,9.668983459E0
3.704140270E-1,1.346738487E-1,1.490390599E-1,9.807847023E0
3.724122050E-1,1.442506462E-1,1.250970364E-1,9.946710587E0
3.744103820E-1,1.346738487E-1,1.538274586E-1,9.855731010E0
3.764085590E-1,1.634042710E-1,3.118447661E-1,9.621099472E0
3.784067360E-1,1.203086376E-1,3.309983909E-1,9.534908295E0
3.804049130E-1,1.107318252E-1,3.693056107E-1,9.587580681E0
3.824030900E-1,8.200141042E-2,3.693056107E-1,9.779116631E0
3.844012670E-1,6.763619930E-2,3.836708367E-1,9.707290649E0
3.863994440E-1,5.805939063E-2,4.315548539E-1,9.611522675E0
3.883976210E-1,5.386953708E-3,4.794389009E-1,9.525331497E0
3.903957980E-1,-3.770867735E-2,4.459200799E-1,9.573215485E0
3.923939750E-1,-1.855506375E-2,4.507084787E-1,9.649829865E0
3.943921520E-1,-3.292027488E-2,4.459200799E-1,9.769539833E0
3.963903300E-1,-6.165069342E-2,3.980360329E-1,9.769539833E0
3.983885070E-1,-4.249707982E-2,3.884592354E-1,9.692925453E0
4.003866320E-1,-1.855506375E-2,4.028244317E-1,9.716867447E0
4.023847570E-1,-1.376665942E-2,4.219780564E-1,9.750386238E0
4.043828820E-1,-2.334346622E-2,3.166331649E-1,9.716867447E0
4.063810070E-1,2.454056777E-2,3.405751884E-1,9.745597839E0
4.083791320E-1,-4.189853091E-3,2.926911712E-1,9.745597839E0
4.103772570E-1,5.327098817E-2,2.639607489E-1,9.836577415E0
4.123753820E-1,6.763619930E-2,3.357867897E-1,9.894038200E0
4.143735070E-1,1.011550203E-1,4.219780564E-1,9.817423820E0
4.163716840E-1,1.059434265E-1,4.411316514E-1,9.668983459E0
4.183699130E-1,9.157821536E-2,4.459200799E-1,9.774328232E0
4.203681940E-1,1.586158574E-1,5.656301379E-1,9.874884605E0
4.223665270E-1,1.346738487E-1,6.230909824E-1,9.750386238E0
4.243649130E-1,1.203086376E-1,5.560533404E-1,9.578003883E0
4.263633500E-1,8.678980917E-2,5.560533404E-1,9.640253067E0
4.283618400E-1,8.200141042E-2,5.704185367E-1,9.621099472E0
4.303603300E-1,1.155202314E-1,4.794389009E-1,9.510966301E0
4.323588190E-1,1.250970364E-1,4.267664552E-1,9.592369080E0
4.343573090E-1,1.011550203E-1,2.256535143E-1,9.731232643E0
4.363557980E-1,1.538274586E-1,1.538274586E-1,9.788693428E0
4.383541320E-1,2.208651006E-1,2.208651006E-1,9.850942612E0
4.403522570E-1,2.017114908E-1,2.304419130E-1,9.874884605E0
4.423503820E-1,2.112883031E-1,2.591723204E-1,9.726444244E0
4.443485070E-1,1.203086376E-1,3.788824081E-1,9.558850288E0
4.463466320E-1,1.298854351E-1,4.507084787E-1,9.376891136E0
4.483447570E-1,7.242459804E-2,4.267664552E-1,9.415198326E0
4.503428820E-1,5.805939063E-2,4.507084787E-1,9.496601105E0
4.523410590E-1,6.763619930E-2,4.459200799E-1,9.625887871E0
4.543392880E-1,1.017535757E-2,4.315548539E-1,9.716867447E0
4.563375690E-1,-1.376665942E-2,5.225345492E-1,9.702502251E0
4.583359020E-1,-6.643909961E-2,6.039373875E-1,9.496601105E0
4.603342360E-1,-9.516951442E-2,5.895721912E-1,9.563638687E0
4.623325690E-1,-9.516951442E-2,6.805518270E-1,9.582792282E0
4.643309020E-1,-1.622071713E-1,8.768763542E-1,8.888473511E0
4.663292360E-1,-2.914940715E-1,9.678560495E-1,8.543708801E0
4.683275690E-1,-5.500678420E-1,7.428010702E-1,8.960299492E0
4.703259020E-1,-5.835866928E-1,5.895721912E-1,9.199720383E0
4.723242360E-1,-5.261258483E-1,5.752069354E-1,1.029626465E1
4.743225690E-1,-5.309142470E-1,2.831143439E-1,1.068412495E1
4.763209020E-1,-3.106476665E-1,2.304419130E-1,1.074637413E1
4.783192360E-1,-9.995792061E-2,3.549404144E-1,1.090439129E1
4.803175690E-1,2.932897024E-2,2.208651006E-1,1.081820011E1
4.823159020E-1,1.490390599E-1,2.112883031E-1,1.024359226E1
4.843142360E-1,2.448071241E-1,3.405751884E-1,9.712079048E0
4.863125690E-1,3.405751884E-1,4.890156984E-1,9.554061890E0
4.883109020E-1,3.405751884E-1,5.991489887E-1,9.257181168E0
4.903092360E-1,2.687491477E-1,4.794389009E-1,9.261969566E0
4.923075690E-1,2.639607489E-1,5.799953341E-1,9.266757965E0
4.943059020E-1,1.250970364E-1,6.039373875E-1,8.955511093E0
4.963042880E-1,4.369417951E-2,6.949170232E-1,8.692149162E0
4.983027250E-1,-2.867056429E-1,6.422445774E-1,8.021772385E0
5.003011630E-1,-3.920505345E-1,6.709750295E-1,7.111976147E0
5.022996000E-1,-4.590881765E-1,6.613982320E-1,8.146271706E0
5.042980380E-1,-5.404910445E-1,2.639607489E-1,8.845377922E0
5.062964750E-1,-4.351461530E-1,-2.675520480E-1,9.989806175E0
5.082949130E-1,-2.579752207E-1,-5.165489912E-1,1.102888966E1
5.102933500E-1,-9.038111567E-2,-3.920505345E-1,1.132577133E1
5.122917880E-1,-1.855506375E-2,6.284779310E-2,1.055483818E1
5.142902250E-1,-4.189853091E-3,2.735375464E-1,9.396044731E0
5.162886110E-1,3.262099922E-1,-1.445499301E0,1.211585808E1
5.182868400E-1,3.740940094E-1,-9.475052953E-1,1.195783997E1
5.202850170E-1,3.549404144E-1,5.799953341E-1,9.769539833E0
5.222831940E-1,4.459200799E-1,9.630676508E-1,8.845377922E0
5.242813710E-1,5.752069354E-1,4.650736749E-1,9.094375610E0
5.262795480E-1,5.656301379E-1,-8.080431074E-2,9.937133789E0
5.282777250E-1,5.847837925E-1,-8.559270948E-2,1.053089619E1
5.302759020E-1,6.470330358E-1,5.805939063E-2,1.028668785E1
5.322740800E-1,6.613982320E-1,-1.669955701E-1,1.009036350E1
5.342722570E-1,6.039373875E-1,-1.430535465E-1,9.874884605E0
5.362704340E-1,5.081692934E-1,-1.143231317E-1,9.917980194E0
5.382686110E-1,4.124012291E-1,-2.334346622E-2,9.965864182E0
5.402667880E-1,3.740940094E-1,1.729810685E-1,9.678560257E0
5.422649650E-1,3.501519859E-1,1.203086376E-1,9.434351921E0
5.442631420E-1,2.639607489E-1,-1.238999367E-1,9.759963036E0
5.462613190E-1,2.448071241E-1,-1.430535465E-1,1.006163311E1
5.482594960E-1,1.394622475E-1,5.985504249E-4,9.678560257E0
5.502577250E-1,1.346738487E-1,8.678980917E-2,9.482235909E0
5.522560070E-1,1.538274586E-1,1.017535757E-2,9.645041466E0
5.542543400E-1,5.805939063E-2,-8.978256024E-3,9.692925453E0
5.562526730E-1,-3.292027488E-2,-4.249707982E-2,9.386467934E0
5.582510070E-1,-6.165069342E-2,-2.053027898E-1,9.635464668E0
5.602493400E-1,-1.143231317E-1,-6.165069342E-2,9.673771858E0
5.622476730E-1,-6.165069342E-2,1.250970364E-1,9.439140320E0
5.642460070E-1,-9.995792061E-2,1.538274586E-1,9.281123161E0
5.662443400E-1,-1.382651478E-1,4.848258570E-2,9.530119896E0
5.682426730E-1,-9.516951442E-2,-2.100912035E-1,1.029626465E1
5.702410070E-1,-1.286883354E-1,-2.005143911E-1,1.082777691E1
5.722393400E-1,-8.080431074E-2,2.017114908E-1,1.044470501E1
5.742376730E-1,-6.643909961E-2,3.836708367E-1,9.965864182E0
5.762360070E-1,-4.728548229E-2,4.076128304E-1,9.692925453E0
5.782343400E-1,-8.080431074E-2,3.980360329E-1,9.879673004E0
5.802326730E-1,-4.728548229E-2,4.028244317E-1,1.022922707E1
5.822310070E-1,6.284779310E-2,4.890156984E-1,9.937133789E0
5.842293400E-1,2.064998895E-1,6.422445774E-1,9.554061890E0
5.862276730E-1,3.309983909E-1,5.799953341E-1,9.554061890E0
5.882260070E-1,3.070563674E-1,2.352303118E-1,1.001374817E1
5.902243400E-1,2.495955229E-1,1.921346933E-1,1.014303589E1
5.922226730E-1,3.309983909E-1,3.501519859E-1,9.941922188E0
5.942210070E-1,3.836708367E-1,2.256535143E-1,1.000417137E1
5.962193400E-1,3.166331649E-1,7.242459804E-2,9.908403397E0
5.982176730E-1,3.357867897E-1,2.352303118E-1,9.664195061E0
6.002160070E-1,3.118447661E-1,2.112883031E-1,9.601945877E0
6.022143400E-1,3.309983909E-1,-4.189853091E-3,9.759963036E0
6.042126730E-1,3.166331649E-1,-1.238999367E-1,9.850942612E0
6.062110590E-1,2.448071241E-1,-1.286883354E-1,9.980229378E0
6.082094960E-1,1.729810685E-1,2.208651006E-1,9.659406662E0
6.102079340E-1,1.017535757E-2,3.501519859E-1,9.228450775E0
6.122063710E-1,-9.516951442E-2,3.597288132E-1,8.696937561E0
6.142048090E-1,-1.095347255E-1,4.848258570E-2,9.142259598E0
6.162030380E-1,2.932897024E-2,-3.489548862E-1,1.016218948E1
6.182011110E-1,1.017535757E-2,-2.867056429E-1,1.094748688E1
6.201991840E-1,-6.165069342E-2,8.678980917E-2,1.012388229E1
6.221972570E-1,3.890577704E-2,2.304419130E-1,9.348160744E0
6.241953300E-1,2.112883031E-1,3.693056107E-1,9.405621529E0
6.261934020E-1,3.070563674E-1,5.129576921E-1,9.472659111E0
6.281914750E-1,3.166331649E-1,3.693056107E-1,9.707290649E0
6.301895480E-1,3.693056107E-1,3.788824081E-1,9.970652580E0
6.321876210E-1,3.549404144E-1,4.459200799E-1,1.015261269E1
6.341857460E-1,2.639607489E-1,5.033808947E-1,1.003769016E1
6.361839230E-1,1.729810685E-1,7.044938207E-1,9.731232643E0
6.381821520E-1,8.200141042E-2,7.811083198E-1,9.716867447E0
6.401804340E-1,-4.249707982E-2,6.230909824E-1,9.740809441E0
6.421787670E-1,-5.686229095E-2,4.650736749E-1,1.010951710E1
6.441771520E-1,5.386953708E-3,6.326677799E-1,1.014782429E1
6.461755380E-1,-8.978256024E-3,6.326677799E-1,9.606734276E0
6.481739230E-1,5.386953708E-3,6.230909824E-1,9.271546364E0
6.501723090E-1,-4.189853091E-3,6.135141850E-1,9.348160744E0
6.521706940E-1,4.369417951E-2,4.698620737E-1,9.530119896E0
6.541690800E-1,1.538274586E-1,3.118447661E-1,9.659406662E0
6.561674650E-1,2.879027426E-1,3.645172119E-1,9.554061890E0
6.581658500E-1,2.974795699E-1,2.974795699E-1,9.477447510E0
6.601642360E-1,1.346738487E-1,1.107318252E-1,9.668983459E0
6.621626210E-1,7.242459804E-2,-3.770867735E-2,9.889249802E0
6.641610070E-1,8.200141042E-2,2.352303118E-1,9.381679535E0
6.661593920E-1,6.763619930E-2,3.262099922E-1,9.463082314E0
6.681577770E-1,1.155202314E-1,1.681926697E-1,1.014782429E1
6.701561630E-1,1.873462796E-1,1.442506462E-1,1.060272217E1
6.721545480E-1,2.112883031E-1,3.836708367E-1,1.030105305E1
6.741529340E-1,1.921346933E-1,6.326677799E-1,9.692925453E0
6.761512670E-1,2.208651006E-1,6.039373875E-1,9.496601105E0
6.781494960E-1,2.208651006E-1,6.087257862E-1,9.951498985E0
6.801477250E-1,3.070563674E-1,6.326677799E-1,1.022443867E1
6.821459550E-1,3.836708367E-1,6.374561787E-1,9.702502251E0
6.841440800E-1,3.645172119E-1,7.236474752E-1,8.921992302E0
6.861422050E-1,3.118447661E-1,7.332242727E-1,9.151836395E0
6.881403300E-1,2.974795699E-1,4.985924959E-1,9.755174637E0
6.901384550E-1,2.112883031E-1,3.501519859E-1,9.755174637E0
6.921365800E-1,2.352303118E-1,6.230909824E-1,9.424775124E0
6.941347050E-1,2.352303118E-1,7.380126715E-1,8.677783966E0
6.961328300E-1,2.256535143E-1,4.746504724E-1,8.754398346E0
6.981309550E-1,1.777694821E-1,2.256535143E-1,9.917980194E0
7.001290800E-1,2.735375464E-1,2.495955229E-1,1.069370174E1
7.021272050E-1,4.363432527E-1,4.698620737E-1,9.798270226E0
7.041253300E-1,3.740940094E-1,6.470330358E-1,9.199720383E0
7.061234550E-1,2.495955229E-1,4.076128304E-1,9.850942612E0
7.081215800E-1,2.208651006E-1,2.974795699E-1,1.054526138E1
7.101197050E-1,2.543839216E-1,5.512649417E-1,1.015740108E1
7.121178300E-1,2.831143439E-1,6.326677799E-1,9.774328232E0
7.141159550E-1,2.352303118E-1,6.661866307E-1,1.006642151E1
7.161140800E-1,1.538274586E-1,7.667431235E-1,1.038245583E1
7.181122050E-1,1.155202314E-1,1.125873327E0,9.755174637E0
7.201101730E-1,1.975216344E-2,1.188122630E0,9.103952408E0
7.221080380E-1,-1.095347255E-1,9.822212458E-1,9.736021042E0
7.241057980E-1,-1.622071713E-1,8.194155097E-1,1.017176628E1
7.261035590E-1,-2.340332121E-1,7.858967185E-1,9.803058624E0
7.281013190E-1,-2.340332121E-1,1.030105233E0,9.558850288E0
7.300990800E-1,-2.053027898E-1,1.197699428E0,9.151836395E0
7.320968400E-1,-2.100912035E-1,9.295488000E-1,9.381679535E0
7.340946000E-1,-3.154360652E-1,6.757634282E-1,9.922768593E0
7.360924130E-1,-3.154360652E-1,6.709750295E-1,1.025795746E1
7.380902770E-1,-3.154360652E-1,5.799953341E-1,1.001374817E1
7.400881940E-1,-3.393780887E-1,6.422445774E-1,9.932345390E0
7.420862150E-1,-4.016273320E-1,7.523778677E-1,9.563638687E0
7.440843400E-1,-4.638765752E-1,9.534908533E-1,9.233239174E0
7.460825690E-1,-4.159925580E-1,8.577227592E-1,9.233239174E0
7.480809020E-1,-3.968389332E-1,6.422445774E-1,9.927556992E0
7.500793400E-1,-3.728969097E-1,6.853402257E-1,1.010472870E1
7.520778300E-1,-3.250128925E-1,5.512649417E-1,9.779116631E0
7.540763710E-1,-2.531868219E-1,6.661866307E-1,9.611522675E0
7.560749650E-1,-1.382651478E-1,9.965864420E-1,9.036913872E0
7.580736110E-1,-8.559270948E-2,8.529343605E-1,8.912415504E0
7.600722570E-1,-9.995792061E-2,4.794389009E-1,1.008557510E1
7.620709020E-1,-3.292027488E-2,5.033808947E-1,1.018134308E1
7.640695480E-1,-2.334346622E-2,4.842272997E-1,9.654618263E0
7.660681940E-1,2.454056777E-2,7.044938207E-1,9.721655846E0
7.680665800E-1,2.932897024E-2,6.039373875E-1,9.410409927E0
7.700649650E-1,-2.771288455E-1,5.656301379E-1,9.827000618E0
7.720632460E-1,8.678980917E-2,5.177460909E-1,1.043991661E1
7.740613190E-1,4.267664552E-1,5.081692934E-1,9.898826599E0
7.760593920E-1,5.560533404E-1,4.507084787E-1,9.721655846E0
7.780574650E-1,7.044938207E-1,4.794389009E-1,1.024359226E1
7.800555900E-1,7.858967185E-1,6.613982320E-1,9.779116631E0
7.820537670E-1,7.954735160E-1,6.853402257E-1,9.372102737E0
7.840519960E-1,7.092822790E-1,6.805518270E-1,1.004247856E1
7.860502770E-1,5.081692934E-1,6.805518270E-1,9.750386238E0
7.880486110E-1,4.124012291E-1,7.140706778E-1,9.477447510E0
7.900469960E-1,3.405751884E-1,7.092822790E-1,9.975440979E0
7.920454340E-1,3.070563674E-1,7.571662664E-1,9.764751434E0
7.940439230E-1,2.639607489E-1,9.439139962E-1,9.290699959E0
7.960424130E-1,2.831143439E-1,7.858967185E-1,9.319430351E0
7.980409020E-1,1.777694821E-1,5.608417392E-1,9.635464668E0
8.000393920E-1,1.921346933E-1,6.422445774E-1,9.922768593E0
8.020378820E-1,1.011550203E-1,7.236474752E-1,8.936357498E0
8.040363710E-1,9.157821536E-2,4.698620737E-1,9.209297180E0
8.060348610E-1,4.369417951E-2,3.597288132E-1,1.055962658E1
8.080333500E-1,-2.334346622E-2,3.932476342E-1,9.487024307E0
8.100318400E-1,-3.292027488E-2,3.884592354E-1,9.563638687E0
8.120303300E-1,7.721300423E-2,3.453635871E-1,9.855731010E0
8.140288190E-1,-4.189853091E-3,3.405751884E-1,1.021965027E1
8.160273090E-1,-6.643909961E-2,4.554968774E-1,1.003769016E1
8.180258500E-1,-1.669955701E-1,5.608417392E-1,9.956287384E0
8.200243920E-1,-1.909375787E-1,5.943605900E-1,9.937133789E0
8.220229340E-1,-1.813607812E-1,6.949170232E-1,9.865307808E0
8.240214750E-1,-1.669955701E-1,9.534908533E-1,9.324218750E0
8.260200170E-1,-1.382651478E-1,8.050503135E-1,9.453505516E0
8.280185590E-1,-1.669955701E-1,6.374561787E-1,9.985017776E0
8.300171000E-1,-2.196680009E-1,4.985924959E-1,1.001853657E1
8.320155900E-1,-1.334767491E-1,4.219780564E-1,1.021486187E1
8.340139230E-1,-9.995792061E-2,4.028244317E-1,9.841365814E0
8.360122570E-1,5.386953708E-3,4.028244317E-1,9.223662376E0
8.380105900E-1,1.975216344E-2,3.405751884E-1,9.357737541E0
8.400089230E-1,-6.165069342E-2,2.639607489E-1,9.520543098E0
8.420072570E-1,-2.531868219E-1,1.729810685E-1,9.922768593E0
8.440055900E-1,-3.537433147E-1,1.681926697E-1,9.678560257E0
8.460039230E-1,-4.303577542E-1,1.634042710E-1,9.908403397E0
8.480022570E-1,-5.213374496E-1,2.926911712E-1,9.539696693E0
8.500006420E-1,-5.692214370E-1,2.687491477E-1,9.850942612E0
8.519990800E-1,-6.697779298E-1,3.597288132E-1,1.062187576E1
8.539975690E-1,-5.931634903E-1,4.698620737E-1,9.487024307E0
8.559961110E-1,-6.506243348E-1,9.103952050E-1,9.266757965E0
8.579947050E-1,-7.032967210E-1,9.678560495E-1,9.161413193E0
8.599933500E-1,-6.171054840E-1,8.002619147E-1,8.826224327E0
8.619920480E-1,-4.734533727E-1,7.380126715E-1,9.688137054E0
8.639907980E-1,-2.675520480E-1,4.794389009E-1,9.357737541E0
8.659895480E-1,-2.196680009E-1,1.394622475E-1,9.683348656E0
8.679882980E-1,-1.382651478E-1,7.721300423E-2,9.898826599E0
8.699870480E-1,-2.813187055E-2,1.634042710E-1,9.908403397E0
8.719857980E-1,2.454056777E-2,1.538274586E-1,9.501389503E0
8.739844960E-1,5.805939063E-2,2.454056777E-2,9.587580681E0
8.759828300E-1,1.586158574E-1,1.394622475E-1,9.817423820E0
8.779811630E-1,2.208651006E-1,1.729810685E-1,9.630676270E0
8.799794960E-1,2.543839216E-1,9.157821536E-2,1.046864700E1
8.819778300E-1,1.490390599E-1,1.634042710E-1,1.003769016E1
8.839761630E-1,5.327098817E-2,3.788824081E-1,1.010951710E1
8.859744960E-1,1.975216344E-2,5.512649417E-1,9.477447510E0
8.879728300E-1,5.985504249E-4,6.470330358E-1,9.961075783E0
8.899711630E-1,-4.189853091E-3,9.487023950E-1,9.209297180E0
8.919694960E-1,-7.601590455E-2,8.433575630E-1,9.329007149E0
8.939678300E-1,2.454056777E-2,9.008184075E-1,1.005205631E1
8.959661630E-1,-1.855506375E-2,9.056068063E-1,9.731232643E0
8.979644960E-1,-1.765723825E-1,8.433575630E-1,1.003769016E1
8.999628300E-1,-2.005143911E-1,1.259948611E0,8.893261909E0
9.019611630E-1,-2.388216257E-1,9.822212458E-1,9.060855865E0
9.039594960E-1,-2.196680009E-1,3.405751884E-1,1.156040287E1
9.059578300E-1,-2.962824702E-1,6.949170232E-1,1.002332497E1
9.079561630E-1,-2.723404467E-1,7.667431235E-1,9.285911560E0
9.099544960E-1,-3.345896900E-1,8.242039084E-1,8.912415504E0
9.119528300E-1,-2.962824702E-1,8.816647530E-1,9.228450775E0
9.139511630E-1,-1.622071713E-1,4.411316514E-1,1.029626465E1
9.159494960E-1,-9.038111567E-2,1.969230920E-1,1.024359226E1
9.179478300E-1,-3.770867735E-2,4.171896577E-1,1.022922707E1
9.199461630E-1,-1.855506375E-2,7.715315223E-1,8.821435928E0
9.219444960E-1,-7.601590455E-2,3.262099922E-1,9.266757965E0
9.239428300E-1,-2.813187055E-2,2.017114908E-1,1.033936024E1
9.259411630E-1,-7.122749835E-2,6.183025837E-1,9.247604370E0
9.279394960E-1,-1.478419602E-1,5.225345492E-1,1.017655468E1
9.299378300E-1,-7.122749835E-2,4.602852762E-1,9.692925453E0
9.319361630E-1,-9.516951442E-2,3.740940094E-1,9.874884605E0
9.339344960E-1,-4.728548229E-2,3.022679687E-1,9.946710587E0
9.359328300E-1,-1.855506375E-2,1.298854351E-1,9.898826599E0
9.379311630E-1,1.017535757E-2,3.453635871E-1,9.324218750E0
9.399294960E-1,1.346738487E-1,1.825578809E-1,9.592369080E0
9.419278300E-1,6.284779310E-2,1.586158574E-1,9.692925453E0
9.439261630E-1,-8.978256024E-3,-1.376665942E-2,9.645041466E0
9.459244960E-1,-4.249707982E-2,-1.038484931E0,1.047822380E1
9.479225690E-1,3.411737457E-2,1.346738487E-1,1.046864700E1
9.499206420E-1,1.496376097E-2,5.895721912E-1,9.324218750E0
9.519187150E-1,5.985504249E-4,6.326677799E-1,9.036913872E0
9.539167880E-1,-8.559270948E-2,1.714846969E0,7.322665691E0
9.559148610E-1,5.327098817E-2,-3.776853085E-1,9.750386238E0
9.579129340E-1,1.777694821E-1,-1.689707875E0,1.546774006E1
9.599110070E-1,7.721300423E-2,5.560533404E-1,9.472659111E0
9.619090800E-1,1.250970364E-1,1.561618090E0,6.379350662E0
9.639071520E-1,-1.717839688E-1,1.111508131E0,7.586028099E0
9.659052250E-1,-1.574187577E-1,-4.189853091E-3,1.068412495E1
9.679032980E-1,-8.559270948E-2,-2.813187055E-2,1.159871006E1
9.699013710E-1,-2.675520480E-1,5.033808947E-1,1.042076302E1
9.718994440E-1,-2.723404467E-1,8.720879555E-1,9.338583946E0
9.738975170E-1,-2.196680009E-1,6.566098332E-1,9.649829865E0
9.758955900E-1,-2.531868219E-1,6.566098332E-1,1.025316906E1
9.778936630E-1,-3.298012912E-1,7.284358740E-1,9.228450775E0
9.798917360E-1,-3.345896900E-1,7.523778677E-1,9.846154213E0
9.818898610E-1,-4.016273320E-1,9.582792521E-1,9.084798813E0
9.838880380E-1,-4.399345517E-1,7.523778677E-1,9.103952408E0
9.858862670E-1,-4.542997777E-1,4.219780564E-1,1.058835697E1
9.878845480E-1,-3.154360652E-1,6.566098332E-1,9.510966301E0
9.898828820E-1,-2.962824702E-1,5.033808947E-1,8.787917137E0
9.918812670E-1,-2.196680009E-1,2.017114908E-1,1.034414864E1
9.938797050E-1,-2.053027898E-1,3.357867897E-1,1.018134308E1
9.958781940E-1,-1.669955701E-1,4.938040972E-1,9.544485092E0
9.978767360E-1,-9.995792061E-2,2.304419130E-1,9.477447510E0
9.998753300E-1,-3.292027488E-2,2.448071241E-1,9.482235909E0
1.001873975E0,1.250970364E-1,1.777694821E-1,9.592369080E0
1.003872621E0,1.155202314E-1,4.848258570E-2,9.779116631E0
1.005871267E0,8.200141042E-2,-8.080431074E-2,1.002332497E1
1.007869913E0,2.352303118E-1,-3.154360652E-1,1.022443867E1
1.009868559E0,3.597288132E-1,-1.478419602E-1,1.099058247E1
1.011867205E0,3.501519859E-1,4.650736749E-1,9.419986725E0
1.013865434E0,2.112883031E-1,7.236474752E-1,8.529343605E0
1.015863663E0,1.490390599E-1,6.326677799E-1,9.137471199E0
1.017861788E0,9.157821536E-2,3.597288132E-1,1.030105305E1
1.019859913E0,1.729810685E-1,2.879027426E-1,9.908403397E0
1.021858038E0,1.346738487E-1,4.746504724E-1,9.965864182E0
1.023856163E0,2.352303118E-1,5.512649417E-1,9.324218750E0
1.025854288E0,1.873462796E-1,3.118447661E-1,1.068891335E1
1.027852413E0,1.203086376E-1,6.374561787E-1,9.453505516E0
1.029850590E0,8.678980917E-2,5.273229480E-1,9.257181168E0
1.031848819E0,3.411737457E-2,3.932476342E-1,1.034893703E1
1.033847100E0,6.763619930E-2,9.008184075E-1,8.984241486E0
1.035845434E0,1.107318252E-1,8.194155097E-1,8.893261909E0
1.037843767E0,1.011550203E-1,5.273229480E-1,9.946710587E0
1.039842100E0,9.157821536E-2,2.639607489E-1,1.079904652E1
1.041840434E0,8.678980917E-2,3.070563674E-1,1.017176628E1
1.043838767E0,6.284779310E-2,2.831143439E-1,9.903614998E0
1.045837100E0,4.369417951E-2,8.194155097E-1,9.817423820E0
1.047835434E0,-1.095347255E-1,1.240795016E0,8.069656372E0
1.049833767E0,-1.622071713E-1,6.518214345E-1,9.434351921E0
1.051832100E0,-1.191115379E-1,4.938040972E-1,9.635464668E0
1.053830434E0,-4.728548229E-2,1.825578809E-1,1.024359226E1
1.055828767E0,5.805939063E-2,2.352303118E-1,1.030584145E1
1.057827100E0,6.763619930E-2,6.709750295E-1,9.127894402E0
1.059825434E0,1.777694821E-1,4.554968774E-1,9.506177902E0
1.061823767E0,1.538274586E-1,2.879027426E-1,1.035372543E1
1.063822100E0,7.721300423E-2,4.028244317E-1,9.860519409E0
1.065820330E0,-2.813187055E-2,5.943605900E-1,9.750386238E0
1.067818559E0,-1.334767491E-1,6.039373875E-1,9.726444244E0
1.069816788E0,-7.601590455E-2,5.512649417E-1,1.008557510E1
1.071815017E0,1.017535757E-2,7.571662664E-1,9.247604370E0
1.073813246E0,1.017535757E-2,7.475894690E-1,9.874884605E0
1.075811475E0,7.721300423E-2,6.422445774E-1,9.668983459E0
1.077809705E0,3.890577704E-2,5.225345492E-1,9.635464668E0
1.079807934E0,1.155202314E-1,3.740940094E-1,1.009515190E1
1.081806163E0,1.346738487E-1,6.566098332E-1,1.008078671E1
1.083804392E0,2.454056777E-2,9.151836038E-1,8.404845238E0
1.085802673E0,2.017114908E-1,7.667431235E-1,9.329007149E0
1.087800955E0,2.495955229E-1,6.230909824E-1,9.865307808E0
1.089799236E0,1.538274586E-1,5.033808947E-1,9.558850288E0
1.091797517E0,1.538274586E-1,1.969230920E-1,1.119169617E1
1.093795798E0,2.160767019E-1,3.645172119E-1,1.003769016E1
1.095794080E0,2.160767019E-1,7.140706778E-1,9.712079048E0
1.097792361E0,1.586158574E-1,1.054047346E0,8.615534782E0
1.099790642E0,1.681926697E-1,4.315548539E-1,9.309853554E0
1.101788923E0,1.681926697E-1,1.298854351E-1,1.099058247E1
1.103787100E0,1.442506462E-1,4.794389009E-1,1.018134308E1
1.105785121E0,2.495955229E-1,7.811083198E-1,9.640253067E0
1.107783142E0,2.304419130E-1,3.836708367E-1,9.056067467E0
1.109781163E0,2.448071241E-1,-3.292027488E-2,1.068891335E1
1.111779184E0,3.645172119E-1,4.650736749E-1,9.453505516E0
1.113777205E0,3.740940094E-1,6.757634282E-1,9.453505516E0
1.115775277E0,3.884592354E-1,7.715315223E-1,8.696937561E0
1.117773402E0,3.788824081E-1,3.166331649E-1,1.032499504E1
1.119771580E0,3.980360329E-1,-1.855506375E-2,1.116296577E1
1.121769809E0,2.112883031E-1,-4.973953962E-1,1.034414864E1
1.123768090E0,2.974795699E-1,4.650736749E-1,8.165425301E0
1.125766423E0,3.836708367E-1,6.901286244E-1,8.055291176E0
1.127764809E0,3.884592354E-1,2.304419130E-1,1.043512821E1
1.129763194E0,3.693056107E-1,1.969230920E-1,1.060272217E1
1.131761580E0,4.315548539E-1,6.470330358E-1,1.006642151E1
1.133759965E0,3.118447661E-1,1.164180517E0,9.338583946E0
1.135758402E0,1.586158574E-1,1.240795016E0,9.142259598E0
1.137756892E0,1.155202314E-1,7.954735160E-1,1.002811337E1
1.139755382E0,-9.038111567E-2,3.357867897E-1,1.041118622E1
1.141753871E0,-9.995792061E-2,9.726444483E-1,8.754398346E0
1.143752361E0,-2.334346622E-2,1.006163239E0,8.548497200E0
1.145750850E0,-1.143231317E-1,4.554968774E-1,1.016218948E1
1.147749340E0,-1.095347255E-1,4.028244317E-1,1.028668785E1
1.149747830E0,-7.122749835E-2,5.799953341E-1,1.066018295E1
1.151746319E0,-2.100912035E-1,1.039682031E0,9.491812706E0
1.153744496E0,-2.819172442E-1,1.039682031E0,9.127894402E0
1.155742673E0,-3.058592677E-1,8.816647530E-1,9.391256332E0
1.157740850E0,-1.957259923E-1,6.374561787E-1,1.094269848E1
1.159739027E0,-5.686229095E-2,1.068412542E0,9.688137054E0
1.161737205E0,-1.334767491E-1,1.030105233E0,8.644265175E0
1.163735382E0,6.284779310E-2,8.481459618E-1,9.649829865E0
1.165733559E0,-4.249707982E-2,7.428010702E-1,1.029626465E1
1.167731736E0,-3.292027488E-2,7.428010702E-1,1.013824749E1
1.169729913E0,3.411737457E-2,5.033808947E-1,9.032125473E0
1.171728090E0,2.932897024E-2,5.416881442E-1,9.788693428E0
1.173726215E0,5.805939063E-2,5.991489887E-1,9.630676270E0
1.175724080E0,1.634042710E-1,5.368997455E-1,1.012388229E1
1.177721944E0,2.400187254E-1,4.267664552E-1,1.013345909E1
1.179719809E0,1.873462796E-1,4.746504724E-1,9.506177902E0
1.181717673E0,2.112883031E-1,3.693056107E-1,9.008183479E0
1.183715538E0,2.639607489E-1,2.304419130E-1,9.668983459E0
1.185713402E0,3.309983909E-1,4.794389009E-1,9.482235909E0
1.187711267E0,3.309983909E-1,6.661866307E-1,9.060855865E0
1.189709184E0,2.926911712E-1,3.118447661E-1,9.640253067E0
1.191707152E0,3.262099922E-1,-1.861491799E-1,1.254681396E1
1.193705173E0,3.453635871E-1,2.831143439E-1,9.582792282E0
1.195703246E0,4.842272997E-1,2.687491477E-1,9.261969566E0
1.197701371E0,4.267664552E-1,-1.382651478E-1,1.035851383E1
1.199699548E0,1.873462796E-1,-6.458359361E-1,1.102888966E1
1.201697777E0,1.442506462E-1,3.262099922E-1,7.370550156E0
1.203696059E0,3.357867897E-1,8.481459618E-1,8.088809967E0
1.205694340E0,3.357867897E-1,2.735375464E-1,9.961075783E0
1.207692621E0,2.639607489E-1,-4.189853091E-3,1.099058247E1
1.209690902E0,1.729810685E-1,6.087257862E-1,1.030105305E1
1.211689184E0,-1.765723825E-1,3.932476342E-1,8.270770073E0
1.213687465E0,-4.189853091E-3,8.194155097E-1,7.849390507E0
1.215685746E0,2.454056777E-2,9.636662155E-2,1.100015926E1
1.217684027E0,-9.995792061E-2,-2.334346622E-2,1.050695419E1
1.219682100E0,-1.143231317E-1,5.033808947E-1,1.065060616E1
1.221680121E0,-8.978256024E-3,3.740940094E-1,9.846154213E0
1.223678038E0,-1.957259923E-1,-3.298012912E-1,1.171363163E1
1.225675955E0,-4.255693555E-1,-8.559270948E-2,9.731232643E0
1.227673871E0,-2.196680009E-1,3.597288132E-1,9.333795547E0
1.229671788E0,1.496376097E-2,5.847837925E-1,9.415198326E0
1.231669705E0,6.763619930E-2,9.103952050E-1,9.664195061E0
1.233667621E0,6.284779310E-2,9.295488000E-1,9.132682800E0
1.235665538E0,-1.376665942E-2,8.577227592E-1,1.076073933E1
1.237663507E0,-3.345896900E-1,4.459200799E-1,9.721655846E0
1.239661527E0,-1.143231317E-1,1.379658699E0,8.639476776E0
1.241659600E0,-3.010708690E-1,1.604713678E0,6.886921406E0
1.243657725E0,-2.388216257E-1,1.264737010E0,9.300276756E0
1.245655850E0,-3.010708690E-1,3.980360329E-1,9.793481827E0
1.247653975E0,-1.813607812E-1,-7.122749835E-2,1.254202557E1
1.249652100E0,-3.920505345E-1,1.231218219E0,9.271546364E0
1.251650225E0,-5.213374496E-1,1.494580388E0,8.021772385E0
1.253648350E0,-4.782418013E-1,8.385691643E-1,9.343372345E0
1.255646475E0,-4.255693555E-1,1.969230920E-1,1.065060616E1
1.257644600E0,-1.526303589E-1,2.932897024E-2,1.121563816E1
1.259642725E0,5.386953708E-3,7.242459804E-2,1.081820011E1
1.261640850E0,-8.978256024E-3,7.906851172E-1,9.113529205E0
1.263638975E0,1.729810685E-1,8.816647530E-1,9.113529205E0
1.265637100E0,2.543839216E-1,3.166331649E-1,9.625887871E0
1.267635225E0,3.932476342E-1,7.721300423E-2,1.058356857E1
1.269633350E0,3.214215636E-1,1.586158574E-1,1.098579407E1
1.271631475E0,1.969230920E-1,4.411316514E-1,9.046490669E0
1.273629652E0,3.070563674E-1,4.650736749E-1,8.749609947E0
1.275627830E0,3.166331649E-1,4.794389009E-1,9.329007149E0
1.277626007E0,2.543839216E-1,2.926911712E-1,9.453505516E0
1.279624184E0,2.160767019E-1,-1.191115379E-1,9.989806175E0
1.281622361E0,2.543839216E-1,-5.207388848E-2,1.095227528E1
1.283620538E0,3.022679687E-1,3.118447661E-1,9.309853554E0
1.285618715E0,1.969230920E-1,3.597288132E-1,9.056067467E0
1.287616892E0,1.442506462E-1,2.495955229E-1,9.099164009E0
1.289615017E0,1.873462796E-1,1.250970364E-1,1.000895977E1
1.291613142E0,2.543839216E-1,3.890577704E-2,1.054047298E1
1.293611267E0,2.974795699E-1,2.639607489E-1,1.060751057E1
1.295609392E0,2.352303118E-1,5.560533404E-1,9.731232643E0
1.297607517E0,1.681926697E-1,9.391255975E-1,8.127118111E0
1.299605642E0,1.250970364E-1,5.033808947E-1,9.755174637E0
1.301603819E0,6.763619930E-2,5.273229480E-1,9.467870712E0
1.303602048E0,-8.978256024E-3,4.650736749E-1,9.750386238E0
1.305600330E0,-1.813607812E-1,2.783259451E-1,9.601945877E0
1.307598663E0,-2.244564146E-1,4.219780564E-1,9.894038200E0
1.309596996E0,-3.489548862E-1,3.118447661E-1,8.859743118E0
1.311595330E0,-1.717839688E-1,-1.430535465E-1,1.028189945E1
1.313593663E0,-2.100912035E-1,-1.855506375E-2,9.874884605E0
1.315591996E0,-2.244564146E-1,-2.813187055E-2,1.021486187E1
1.317590330E0,-2.962824702E-1,2.831143439E-1,9.166201591E0
1.319588663E0,-1.191115379E-1,2.160767019E-1,8.735244751E0
1.321586996E0,-1.376665942E-2,-3.633201122E-1,1.121563816E1
1.323585330E0,-8.978256024E-3,-1.717839688E-1,1.078946972E1
1.325583663E0,1.155202314E-1,2.160767019E-1,9.793481827E0
1.327581996E0,1.442506462E-1,3.884592354E-1,8.869319916E0
1.329580330E0,1.538274586E-1,8.200141042E-2,1.003290176E1
1.331578663E0,8.200141042E-2,4.848258570E-2,1.013824749E1
1.333576788E0,9.157821536E-2,-1.855506375E-2,1.040639782E1
1.335574861E0,6.763619930E-2,3.884592354E-1,9.779116631E0
1.337572934E0,3.890577704E-2,2.112883031E-1,8.730456352E0
1.339570955E0,-1.047463268E-1,-3.824737072E-1,1.021965027E1
1.341568975E0,-2.334346622E-2,2.064998895E-1,9.606734276E0
1.343566996E0,5.985504249E-4,5.225345492E-1,8.275558472E0
1.345565017E0,-1.622071713E-1,2.591723204E-1,9.448717117E0
1.347563038E0,-7.601590455E-2,7.721300423E-2,1.018613148E1
1.349561059E0,-1.909375787E-1,-1.334767491E-1,1.024359226E1
1.351559080E0,-2.867056429E-1,3.070563674E-1,9.209297180E0
1.353557100E0,-1.957259923E-1,1.825578809E-1,8.318654060E0
1.355555121E0,-2.675520480E-1,-3.010708690E-1,1.037287903E1
1.357553194E0,-2.436100245E-1,-4.638765752E-1,1.006642151E1
1.359551319E0,-1.334767491E-1,-4.064157307E-1,1.119169617E1
1.361549444E0,-8.559270948E-2,-1.622071713E-1,9.228450775E0
1.363547569E0,-2.813187055E-2,-9.995792061E-2,9.209297180E0
1.365545694E0,-2.196680009E-1,1.059434265E-1,8.811859131E0
1.367543819E0,-1.765723825E-1,-4.638765752E-1,1.114381218E1
1.369541944E0,-1.478419602E-1,-3.585317135E-1,1.019570827E1
1.371540069E0,-9.516951442E-2,-9.038111567E-2,9.329007149E0
1.373538194E0,-5.207388848E-2,-3.292027488E-2,9.295488358E0
1.375536319E0,-6.165069342E-2,1.011550203E-1,9.491812706E0
1.377534444E0,-5.686229095E-2,-1.382651478E-1,9.190143585E0
1.379532621E0,-2.813187055E-2,-6.165069342E-2,1.045428181E1
1.381530798E0,7.242459804E-2,1.011550203E-1,1.016218948E1
1.383528975E0,-9.516951442E-2,1.490390599E-1,9.898826599E0
1.385527152E0,-5.207388848E-2,2.112883031E-1,9.324218750E0
1.387525330E0,-4.728548229E-2,1.634042710E-1,1.011430550E1
1.389523559E0,-7.122749835E-2,-2.196680009E-1,1.017655468E1
1.391521840E0,-1.238999367E-1,1.011550203E-1,1.057399178E1
1.393520173E0,-1.957259923E-1,3.549404144E-1,8.653841972E0
1.395518559E0,-2.340332121E-1,4.076128304E-1,9.113529205E0
1.397516996E0,-3.393780887E-1,3.262099922E-1,9.396044731E0
1.399515486E0,-2.867056429E-1,7.242459804E-2,1.005205631E1
1.401514027E0,-3.920505345E-1,-2.436100245E-1,1.000895977E1
1.403512621E0,-4.495113790E-1,-3.824737072E-1,9.750386238E0
1.405511215E0,-3.298012912E-1,-1.574187577E-1,9.865307808E0
1.407509809E0,-3.298012912E-1,1.975216344E-2,9.008183479E0
1.409508402E0,-3.250128925E-1,-2.531868219E-1,9.817423820E0
1.411506996E0,-2.148796022E-1,-3.776853085E-1,9.764751434E0
1.413505590E0,-2.244564146E-1,-3.202244639E-1,9.946710587E0
1.415504132E0,-1.957259923E-1,-1.382651478E-1,9.281123161E0
1.417502257E0,-2.813187055E-2,-3.920505345E-1,9.836577415E0
1.419500382E0,-1.095347255E-1,-5.021837950E-1,9.314641953E0
1.421498507E0,-1.334767491E-1,-4.495113790E-1,9.276334763E0
1.423496632E0,-8.978256024E-3,-5.452794433E-1,1.098100567E1
1.425494757E0,1.107318252E-1,-3.872621357E-1,1.105283260E1
1.427492882E0,1.250970364E-1,-5.069721937E-1,1.057878017E1
1.429491007E0,1.203086376E-1,4.219780564E-1,9.113529205E0
1.431489184E0,1.017535757E-2,1.326986313E0,6.293159008E0
1.433487413E0,1.298854351E-1,1.873462796E-1,8.773551941E0
1.435485694E0,3.405751884E-1,-7.846996188E-1,1.192432117E1
1.437484027E0,1.586158574E-1,-6.889315248E-1,1.127309895E1
1.439482465E0,7.721300423E-2,-1.430535465E-1,1.140238571E1
1.441481007E0,-1.376665942E-2,6.039373875E-1,8.807070732E0
1.443479600E0,-4.728548229E-2,8.242039084E-1,7.413645744E0
1.445478246E0,1.155202314E-1,4.076128304E-1,8.682572365E0
1.447476944E0,2.495955229E-1,-1.286883354E-1,1.104325581E1
1.449475694E0,1.777694821E-1,-4.064157307E-1,1.106719780E1
1.451474496E0,-4.249707982E-2,5.805939063E-2,9.716867447E0
1.453473350E0,-5.686229095E-2,4.459200799E-1,9.046490669E0
1.455472205E0,4.369417951E-2,2.926911712E-1,9.520543098E0
1.457471059E0,5.985504249E-4,-5.207388848E-2,9.922768593E0
1.459469913E0,1.975216344E-2,-1.095347255E-1,9.755174637E0
1.461468663E0,-4.189853091E-3,-2.005143911E-1,1.037766743E1
1.463467257E0,-1.855506375E-2,-1.430535465E-1,1.011430550E1
1.465465746E0,-1.334767491E-1,-1.574187577E-1,9.271546364E0
1.467464236E0,-1.382651478E-1,2.735375464E-1,8.989029884E0
1.469462725E0,-2.100912035E-1,1.586158574E-1,8.807070732E0
1.471461215E0,-1.909375787E-1,-3.441664875E-1,1.016697788E1
1.473459705E0,-1.478419602E-1,-4.686649740E-1,1.061229897E1
1.475458090E0,-1.957259923E-1,-9.038111567E-2,1.072243214E1
1.477456267E0,-2.148796022E-1,2.017114908E-1,9.376891136E0
1.479454444E0,-2.244564146E-1,2.687491477E-1,9.032125473E0
1.481452621E0,-1.669955701E-1,4.124012291E-1,8.481459618E0
1.483450798E0,-6.643909961E-2,1.634042710E-1,9.879673004E0
1.485448975E0,-2.813187055E-2,-5.207388848E-2,9.788693428E0
1.487447152E0,-1.855506375E-2,-3.776853085E-1,1.063145256E1
1.489445330E0,4.848258570E-2,8.678980917E-2,9.668983459E0
1.491443559E0,-1.861491799E-1,8.050503135E-1,7.337030888E0
1.493441840E0,1.017535757E-2,-1.909375787E-1,1.018613148E1
1.495440173E0,1.155202314E-1,-1.334767491E-1,1.135450172E1
1.497438507E0,1.586158574E-1,-6.643909961E-2,9.712079048E0
1.499436840E0,1.490390599E-1,1.250970364E-1,1.129225254E1
1.501435173E0,3.411737457E-2,9.582792521E-1,8.476671219E0
1.503433559E0,1.298854351E-1,6.566098332E-1,9.276334763E0
1.505431996E0,6.763619930E-2,4.746504724E-1,9.745597839E0
1.507430434E0,1.538274586E-1,2.495955229E-1,1.041597462E1
1.509428871E0,1.442506462E-1,1.969230920E-1,1.087566090E1
1.511427309E0,6.763619930E-2,6.470330358E-1,8.625111580E0
1.513425746E0,8.678980917E-2,6.183025837E-1,9.046490669E0
1.515424184E0,4.848258570E-2,3.645172119E-1,1.003769016E1
1.517422621E0,3.890577704E-2,4.267664552E-1,9.496601105E0
1.519421059E0,2.932897024E-2,4.124012291E-1,9.616311073E0
1.521419496E0,2.543839216E-1,-2.436100245E-1,1.064581776E1
1.523417934E0,1.442506462E-1,4.369417951E-2,1.044470501E1
1.525416267E0,8.678980917E-2,6.422445774E-1,8.821435928E0
1.527414600E0,9.157821536E-2,8.720879555E-1,8.821435928E0
1.529412934E0,1.777694821E-1,2.974795699E-1,9.496601105E0
1.531411267E0,2.112883031E-1,-1.957259923E-1,1.119648457E1
1.533409600E0,1.586158574E-1,2.256535143E-1,1.030584145E1
1.535407934E0,1.538274586E-1,6.278793812E-1,9.142259598E0
1.537406267E0,8.678980917E-2,8.050503135E-1,8.601169586E0
1.539404548E0,1.203086376E-1,7.380126715E-1,9.573215485E0
1.541402725E0,7.242459804E-2,5.560533404E-1,9.755174637E0
1.543400850E0,1.442506462E-1,3.836708367E-1,9.985017776E0
1.545398975E0,2.017114908E-1,1.921346933E-1,1.024838066E1
1.547397100E0,2.495955229E-1,1.107318252E-1,1.029626465E1
1.549395225E0,2.256535143E-1,3.309983909E-1,9.252392769E0
1.551393350E0,1.921346933E-1,5.991489887E-1,9.127894402E0
1.553391475E0,2.017114908E-1,3.836708367E-1,9.702502251E0
1.555389652E0,1.969230920E-1,1.346738487E-1,9.965864182E0
1.557387882E0,2.831143439E-1,5.805939063E-2,1.021007347E1
1.559386163E0,2.639607489E-1,3.788824081E-1,9.616311073E0
1.561384496E0,1.969230920E-1,6.374561787E-1,9.012971878E0
1.563382882E0,1.969230920E-1,5.273229480E-1,9.199720383E0
1.565381267E0,2.017114908E-1,4.369417951E-2,1.061229897E1
1.567379705E0,1.442506462E-1,-7.122749835E-2,1.044470501E1
1.569378194E0,2.304419130E-1,3.118447661E-1,1.032499504E1
1.571376684E0,8.678980917E-2,6.422445774E-1,9.372102737E0
1.573375225E0,-1.376665942E-2,4.985924959E-1,8.802282333E0
1.575373767E0,1.011550203E-1,1.681926697E-1,9.319430351E0
1.577372309E0,1.825578809E-1,2.495955229E-1,9.898826599E0
1.579370850E0,1.298854351E-1,2.974795699E-1,9.965864182E0
1.581369392E0,1.107318252E-1,1.538274586E-1,1.014303589E1
1.583367934E0,-7.122749835E-2,-1.191115379E-1,9.678560257E0
1.585366475E0,-2.813187055E-2,-3.393780887E-1,1.082777691E1
1.587365017E0,3.890577704E-2,1.777694821E-1,9.362525940E0
1.589363559E0,1.538274586E-1,4.985924959E-1,8.337807655E0
1.591361996E0,2.064998895E-1,1.921346933E-1,9.558850288E0
1.593360277E0,1.394622475E-1,-7.122749835E-2,1.024838066E1
1.595358559E0,-1.855506375E-2,1.777694821E-1,9.625887871E0
1.597356840E0,1.250970364E-1,1.921346933E-1,1.022922707E1
1.599355121E0,1.586158574E-1,4.369417951E-2,9.798270226E0
1.601353402E0,1.969230920E-1,-9.038111567E-2,1.050216579E1
1.603351684E0,8.678980917E-2,3.740940094E-1,8.984241486E0
1.605349965E0,-1.376665942E-2,4.794389009E-1,8.313865662E0
1.607348246E0,-6.165069342E-2,5.805939063E-2,9.357737541E0
1.609346527E0,5.327098817E-2,-2.483984232E-1,1.062666416E1
1.611344809E0,1.298854351E-1,-1.526303589E-1,1.092833328E1
1.613343090E0,2.112883031E-1,-8.978256024E-3,9.410409927E0
1.615341371E0,1.729810685E-1,-4.728548229E-2,1.029147625E1
1.617339652E0,1.203086376E-1,3.788824081E-1,9.367314339E0
1.619337934E0,1.634042710E-1,3.884592354E-1,9.429563522E0
1.621336215E0,2.591723204E-1,8.678980917E-2,9.692925453E0
1.623334548E0,3.022679687E-1,1.921346933E-1,9.482235909E0
1.625332934E0,2.352303118E-1,1.777694821E-1,9.199720383E0
1.627331371E0,3.070563674E-1,-1.382651478E-1,9.946710587E0
1.629329861E0,2.495955229E-1,-8.978256024E-3,1.057878017E1
1.631328402E0,2.926911712E-1,1.825578809E-1,9.549273491E0
1.633326996E0,3.166331649E-1,5.386953708E-3,1.002332497E1
1.635325642E0,3.070563674E-1,-4.189853091E-3,9.491812706E0
1.637324288E0,2.495955229E-1,1.975216344E-2,9.530119896E0
1.639322934E0,3.070563674E-1,-7.122749835E-2,9.702502251E0
1.641321580E0,3.070563674E-1,-1.191115379E-1,1.008078671E1
1.643320225E0,3.166331649E-1,-1.622071713E-1,1.010472870E1
1.645318871E0,2.879027426E-1,-6.643909961E-2,9.539696693E0
1.647317517E0,2.304419130E-1,1.496376097E-2,9.300276756E0
1.649315850E0,2.256535143E-1,-2.334346622E-2,9.060855865E0
1.651314027E0,1.442506462E-1,-3.345896900E-1,9.386467934E0
1.653312205E0,1.921346933E-1,-2.723404467E-1,1.050216579E1
1.655310330E0,6.763619930E-2,7.242459804E-2,9.290699959E0
1.657308455E0,6.763619930E-2,2.256535143E-1,9.204508781E0
1.659306580E0,6.763619930E-2,1.681926697E-1,9.324218750E0
1.661304705E0,4.848258570E-2,-2.819172442E-1,1.031062984E1
1.663302830E0,1.011550203E-1,-3.537433147E-1,1.110071659E1
1.665300955E0,5.386953708E-3,1.346738487E-1,9.894038200E0
1.667299080E0,9.157821536E-2,-8.559270948E-2,9.367314339E0
1.669297205E0,-3.292027488E-2,-1.238999367E-1,9.874884605E0
1.671295330E0,-1.095347255E-1,3.166331649E-1,9.209297180E0
1.673293455E0,1.017535757E-2,-1.143231317E-1,1.013345909E1
1.675291580E0,-7.601590455E-2,-3.824737072E-1,1.069849014E1
1.677289705E0,-2.334346622E-2,-5.686229095E-2,9.578003883E0
1.679287830E0,-3.292027488E-2,4.746504724E-1,9.515754700E0
1.681285955E0,-9.038111567E-2,4.554968774E-1,9.396044731E0
1.683284080E0,-1.238999367E-1,1.203086376E-1,9.448717117E0
1.685282205E0,-1.334767491E-1,-5.207388848E-2,9.482235909E0
1.687280330E0,-1.095347255E-1,5.386953708E-3,9.625887871E0
1.689278455E0,-1.334767491E-1,2.112883031E-1,9.472659111E0
1.691276580E0,-1.717839688E-1,-9.516951442E-2,9.716867447E0
1.693274705E0,-1.382651478E-1,-5.596446395E-1,1.096185207E1
1.695272830E0,-2.388216257E-1,5.805939063E-2,9.305065155E0
1.697270955E0,-2.723404467E-1,3.309983909E-1,8.744821548E0
1.699269080E0,-1.334767491E-1,9.636662155E-2,9.281123161E0
1.701267205E0,-1.047463268E-1,-1.622071713E-1,9.937133789E0
1.703265330E0,-1.478419602E-1,-3.345896900E-1,1.024838066E1
1.705263455E0,-1.765723825E-1,6.763619930E-2,9.841365814E0
1.707261580E0,-1.095347255E-1,5.805939063E-2,9.630676270E0
1.709259705E0,-9.516951442E-2,-9.995792061E-2,1.093312168E1
1.711257830E0,-1.376665942E-2,1.777694821E-1,9.228450775E0
1.713255955E0,-8.978256024E-3,1.250970364E-1,9.214085579E0
1.715254080E0,1.538274586E-1,1.969230920E-1,9.889249802E0
1.717252205E0,1.681926697E-1,1.394622475E-1,9.597157478E0
1.719250330E0,1.346738487E-1,1.681926697E-1,1.001853657E1
1.721248455E0,2.687491477E-1,2.543839216E-1,9.376891136E0
1.723246632E0,3.118447661E-1,1.969230920E-1,9.472659111E0
1.725244861E0,2.831143439E-1,2.735375464E-1,1.019091988E1
1.727243142E0,2.017114908E-1,2.064998895E-1,9.635464668E0
1.729241475E0,2.400187254E-1,3.597288132E-1,1.044470501E1
1.731239861E0,1.921346933E-1,3.788824081E-1,8.888473511E0
1.733238298E0,2.543839216E-1,3.070563674E-1,9.649829865E0
1.735236736E0,2.495955229E-1,4.411316514E-1,9.769539833E0
1.737235173E0,1.681926697E-1,2.017114908E-1,1.011430550E1
1.739233611E0,1.250970364E-1,4.315548539E-1,1.085171890E1
1.741232048E0,1.011550203E-1,9.295488000E-1,8.591592789E0
1.743230486E0,3.411737457E-2,5.560533404E-1,8.950722694E0
1.745228923E0,9.636662155E-2,-4.728548229E-2,1.082777691E1
1.747227361E0,2.932897024E-2,8.200141042E-2,1.040160942E1
1.749225798E0,-1.376665942E-2,1.873462796E-1,9.592369080E0
1.751224236E0,7.242459804E-2,5.368997455E-1,8.960299492E0
1.753222673E0,5.386953708E-3,7.044938207E-1,7.729680061E0
1.755220902E0,6.284779310E-2,-4.249707982E-2,9.453505516E0
1.757218975E0,1.107318252E-1,-3.681085110E-1,1.164659405E1
1.759217048E0,-7.122749835E-2,1.017535757E-2,9.836577415E0
1.761215121E0,-2.334346622E-2,9.636662155E-2,9.443928719E0
1.763213194E0,-1.717839688E-1,5.386953708E-3,9.769539833E0
1.765211267E0,-2.334346622E-2,2.112883031E-1,9.032125473E0
1.767209340E0,1.011550203E-1,6.763619930E-2,1.013824749E1
1.769207413E0,5.985504249E-4,-9.516951442E-2,9.836577415E0
1.771205486E0,5.805939063E-2,-1.765723825E-1,1.082298851E1
1.773203559E0,5.805939063E-2,2.208651006E-1,1.013824749E1
1.775201684E0,-8.978256024E-3,3.309983909E-1,8.945934296E0
1.777199861E0,-4.189853091E-3,1.538274586E-1,9.654618263E0
1.779198090E0,5.985504249E-4,3.166331649E-1,9.764751434E0
1.781196371E0,1.298854351E-1,1.155202314E-1,9.927556992E0
1.783194705E0,1.586158574E-1,-1.478419602E-1,1.148378849E1
1.785193090E0,9.636662155E-2,4.842272997E-1,9.463082314E0
1.787191527E0,-2.813187055E-2,4.076128304E-1,8.802282333E0
1.789190017E0,1.107318252E-1,2.256535143E-1,9.180566788E0
1.791188507E0,8.200141042E-2,2.256535143E-1,9.659406662E0
1.793186996E0,-1.376665942E-2,3.405751884E-1,9.295488358E0
1.795185486E0,5.386953708E-3,4.369417951E-2,9.214085579E0
1.797183975E0,-4.189853091E-3,-1.813607812E-1,1.014782429E1
1.799182465E0,-4.728548229E-2,-1.909375787E-1,9.645041466E0
1.801180955E0,4.848258570E-2,-1.376665942E-2,9.870096207E0
1.803179444E0,-2.813187055E-2,2.064998895E-1,9.381679535E0
1.805177934E0,-2.334346622E-2,5.386953708E-3,8.850166321E0
1.807176267E0,6.284779310E-2,-5.261258483E-1,1.030105305E1
1.809174600E0,3.890577704E-2,3.411737457E-2,1.046864700E1
1.811172934E0,-5.207388848E-2,2.783259451E-1,8.586804390E0
1.813171267E0,4.848258570E-2,-1.855506375E-2,1.074158573E1
1.815169600E0,7.721300423E-2,1.490390599E-1,1.010472870E1
1.817167934E0,1.155202314E-1,3.166331649E-1,9.295488358E0
1.819166267E0,2.112883031E-1,3.214215636E-1,9.965864182E0
1.821164600E0,2.112883031E-1,4.124012291E-1,9.443928719E0
1.823162934E0,2.543839216E-1,3.214215636E-1,9.621099472E0
1.825161267E0,2.735375464E-1,9.636662155E-2,1.069849014E1
1.827159600E0,1.969230920E-1,2.112883031E-1,9.965864182E0
1.829157934E0,2.352303118E-1,4.171896577E-1,9.477447510E0
1.831156267E0,1.059434265E-1,6.518214345E-1,8.725667953E0
1.833154600E0,1.729810685E-1,3.357867897E-1,9.142259598E0
1.835152882E0,2.112883031E-1,-7.601590455E-2,1.130182934E1
1.837151163E0,2.735375464E-1,1.729810685E-1,1.027711105E1
1.839149444E0,1.634042710E-1,8.625111580E-1,8.754398346E0
1.841147725E0,1.203086376E-1,5.512649417E-1,8.773551941E0
1.843146007E0,3.890577704E-2,-1.286883354E-1,1.081341171E1
1.845144288E0,5.805939063E-2,-1.861491799E-1,9.865307808E0
1.847142569E0,8.678980917E-2,-5.207388848E-2,1.044470501E1
1.849140850E0,9.157821536E-2,5.991489887E-1,9.419986725E0
1.851139132E0,2.932897024E-2,6.661866307E-1,8.605957985E0
1.853137465E0,4.369417951E-2,1.107318252E-1,1.020528507E1
1.855135850E0,1.017535757E-2,1.298854351E-1,9.443928719E0
1.857134288E0,1.298854351E-1,3.453635871E-1,9.688137054E0
1.859132777E0,1.921346933E-1,8.678980917E-2,9.779116631E0
1.861131267E0,1.442506462E-1,-3.920505345E-1,1.025316906E1
1.863129757E0,1.586158574E-1,-1.622071713E-1,1.006642151E1
1.865128246E0,2.400187254E-1,5.273229480E-1,8.874108315E0
1.867126580E0,1.442506462E-1,3.836708367E-1,8.816647530E0
1.869124913E0,1.490390599E-1,-2.148796022E-1,9.731232643E0
1.871123194E0,2.974795699E-1,-4.542997777E-1,1.086608410E1
1.873121371E0,3.357867897E-1,-2.813187055E-2,1.043991661E1
1.875119548E0,3.262099922E-1,3.214215636E-1,9.285911560E0
1.877117725E0,2.112883031E-1,5.033808947E-1,9.166201591E0
1.879115902E0,8.678980917E-2,3.788824081E-1,8.778340340E0
1.881114080E0,3.118447661E-1,2.591723204E-1,1.047343540E1
1.883112257E0,3.214215636E-1,2.495955229E-1,1.088044930E1
1.885110434E0,3.214215636E-1,2.400187254E-1,1.020049667E1
1.887108611E0,3.118447661E-1,2.160767019E-1,9.946710587E0
1.889106788E0,2.495955229E-1,5.608417392E-1,9.194931984E0
1.891105017E0,1.586158574E-1,7.619546652E-1,8.462306023E0
1.893103298E0,2.208651006E-1,6.326677799E-1,9.348160744E0
1.895101632E0,1.346738487E-1,3.693056107E-1,1.027232265E1
1.897100017E0,1.538274586E-1,3.645172119E-1,1.016218948E1
1.899098455E0,1.969230920E-1,1.538274586E-1,1.000895977E1
1.901096944E0,2.687491477E-1,1.586158574E-1,1.075595093E1
1.903095486E0,1.729810685E-1,6.853402257E-1,8.931569099E0
1.905094080E0,2.352303118E-1,6.326677799E-1,8.534132004E0
1.907092673E0,2.352303118E-1,6.763619930E-2,9.697713852E0
1.909091267E0,4.369417951E-2,-4.303577542E-1,1.033936024E1
1.911089861E0,5.327098817E-2,-6.165069342E-2,1.016697788E1
1.913088455E0,1.011550203E-1,2.543839216E-1,9.252392769E0
1.915087048E0,5.985504249E-4,1.298854351E-1,9.391256332E0
1.917085330E0,1.298854351E-1,1.975216344E-2,9.180566788E0
1.919083507E0,1.975216344E-2,-1.526303589E-1,9.994594574E0
1.921081684E0,5.985504249E-4,-2.436100245E-1,9.625887871E0
1.923079861E0,1.017535757E-2,-9.038111567E-2,1.046385860E1
1.925078038E0,-5.686229095E-2,4.363432527E-1,9.458293915E0
1.927076215E0,-1.478419602E-1,4.459200799E-1,9.089587212E0
1.929074392E0,-9.516951442E-2,4.459200799E-1,9.846154213E0
1.931072569E0,-2.436100245E-1,2.783259451E-1,8.926780701E0
1.933070746E0,-1.669955701E-1,1.975216344E-2,1.016697788E1
1.935068871E0,-1.813607812E-1,5.805939063E-2,1.058835697E1
1.937066996E0,-6.643909961E-2,2.831143439E-1,9.827000618E0
1.939065121E0,-9.038111567E-2,-2.334346622E-2,9.740809441E0
1.941063246E0,-3.770867735E-2,-2.627636492E-1,1.067933655E1
1.943061371E0,-1.622071713E-1,5.327098817E-2,9.745597839E0
1.945059496E0,-1.909375787E-1,3.309983909E-1,9.338583946E0
1.947057621E0,-1.717839688E-1,1.298854351E-1,9.649829865E0
1.949055746E0,-6.165069342E-2,2.304419130E-1,9.443928719E0
1.951053871E0,-4.728548229E-2,1.873462796E-1,9.089587212E0
1.953051996E0,3.890577704E-2,-2.053027898E-1,9.994594574E0
1.955050121E0,-4.189853091E-3,-3.393780887E-1,1.048301220E1
1.957048298E0,-3.770867735E-2,-4.728548229E-2,1.012867069E1
1.959046475E0,-5.686229095E-2,3.884592354E-1,9.295488358E0
1.961044705E0,-1.238999367E-1,4.076128304E-1,8.859743118E0
1.963042934E0,-2.813187055E-2,1.975216344E-2,9.592369080E0
1.965041163E0,-3.770867735E-2,-1.861491799E-1,1.018613148E1
1.967039444E0,-4.249707982E-2,1.681926697E-1,1.005205631E1
1.969037777E0,-1.047463268E-1,1.777694821E-1,9.530119896E0
1.971036163E0,-1.669955701E-1,-7.601590455E-2,9.946710587E0
1.973034548E0,-2.340332121E-1,-2.723404467E-1,1.061229897E1
1.975032934E0,-3.824737072E-1,-1.430535465E-1,1.007120991E1
1.977031319E0,-2.819172442E-1,3.890577704E-2,9.544485092E0
1.979029705E0,-3.106476665E-1,2.831143439E-1,8.878896713E0
1.981028090E0,-4.016273320E-1,1.969230920E-1,8.859743118E0
1.983026475E0,-2.819172442E-1,-2.723404467E-1,9.362525940E0
1.985024861E0,-2.244564146E-1,-6.075286865E-1,1.063145256E1
1.987023246E0,-1.813607812E-1,-4.159925580E-1,9.937133789E0
1.989021632E0,-1.717839688E-1,-2.771288455E-1,9.889249802E0
1.991020017E0,-1.717839688E-1,-7.601590455E-2,9.261969566E0
1.993018402E0,-1.622071713E-1,-1.717839688E-1,9.060855865E0
1.995016788E0,-6.643909961E-2,-4.638765752E-1,1.006642151E1
1.997015173E0,-1.622071713E-1,-5.740098357E-1,9.573215485E0
1.999013507E0,-1.286883354E-1,-1.238999367E-1,1.011909389E1
2.001011736E0,-2.340332121E-1,2.783259451E-1,8.534132004E0
2.003009965E0,-1.669955701E-1,-8.559270948E-2,1.015261269E1
2.005008142E0,-2.436100245E-1,-1.286883354E-1,1.040639782E1
2.007006319E0,-2.531868219E-1,1.203086376E-1,9.759963036E0
2.009004496E0,-2.053027898E-1,4.363432527E-1,9.822212219E0
2.011002673E0,-2.867056429E-1,4.890156984E-1,9.166201591E0
2.013000850E0,-3.106476665E-1,2.400187254E-1,1.027232265E1
2.014999027E0,-2.627636492E-1,1.969230920E-1,1.032020664E1
2.016997205E0,-1.717839688E-1,2.735375464E-1,9.721655846E0
2.018995382E0,-2.334346622E-2,4.411316514E-1,9.381679535E0
2.020993559E0,-4.728548229E-2,4.794389009E-1,9.419986725E0
2.022991736E0,-3.770867735E-2,2.926911712E-1,9.510966301E0
2.024989913E0,3.411737457E-2,-6.643909961E-2,1.024359226E1
2.026988090E0,1.298854351E-1,1.969230920E-1,1.025795746E1
2.028986267E0,-1.717839688E-1,1.303044319E0,8.055291176E0
2.030984496E0,-1.855506375E-2,1.216853023E0,9.635464668E0
2.032982777E0,-8.080431074E-2,8.529343605E-1,9.731232643E0
2.034981111E0,-7.122749835E-2,2.208651006E-1,1.094748688E1
2.036979444E0,-8.080431074E-2,4.746504724E-1,1.138323212E1
2.038977777E0,-2.292448133E-1,7.092822790E-1,9.376891136E0
2.040976111E0,-2.196680009E-1,5.512649417E-1,9.534908295E0
2.042974444E0,-1.861491799E-1,9.630676508E-1,8.749609947E0
2.044972673E0,-1.478419602E-1,8.912416101E-1,8.198944092E0
2.046970746E0,-1.669955701E-1,1.586158574E-1,9.611522675E0
2.048968819E0,-1.047463268E-1,-1.861491799E-1,1.120606136E1
2.050966892E0,-9.516951442E-2,-1.334767491E-1,9.889249802E0
2.052964965E0,6.763619930E-2,-9.038111567E-2,1.069370174E1
2.054963038E0,6.284779310E-2,2.352303118E-1,8.677783966E0
2.056961111E0,4.848258570E-2,1.634042710E-1,9.372102737E0
2.058959184E0,3.890577704E-2,1.681926697E-1,9.233239174E0
2.060957257E0,1.203086376E-1,-6.165069342E-2,1.002332497E1
2.062955330E0,2.591723204E-1,-1.430535465E-1,1.060751057E1
2.064953402E0,3.501519859E-1,1.346738487E-1,1.038245583E1
2.066951527E0,2.591723204E-1,8.433575630E-1,9.941922188E0
2.068949705E0,2.256535143E-1,7.906851172E-1,8.064867973E0
2.070947934E0,3.214215636E-1,7.242459804E-2,1.081820011E1
2.072946215E0,2.831143439E-1,4.890156984E-1,9.774328232E0
2.074944548E0,2.879027426E-1,4.698620737E-1,9.209297180E0
2.076942934E0,4.602852762E-1,2.591723204E-1,1.088044930E1
2.078941371E0,3.549404144E-1,7.188590765E-1,9.443928719E0
2.080939809E0,3.309983909E-1,5.895721912E-1,9.606734276E0
2.082938246E0,3.022679687E-1,5.273229480E-1,9.554061890E0
2.084936684E0,3.411737457E-2,7.715315223E-1,9.242815971E0
2.086935121E0,1.250970364E-1,6.135141850E-1,8.582015991E0
2.088933455E0,3.262099922E-1,-3.292027488E-2,1.098100567E1
2.090931111E0,2.112883031E-1,1.490390599E-1,9.965864182E0
2.092928767E0,5.327098817E-2,2.017114908E-1,9.056067467E0
2.094926423E0,-2.334346622E-2,-1.855506375E-2,9.716867447E0
2.096924080E0,1.203086376E-1,-6.643909961E-2,9.544485092E0
2.098921736E0,1.873462796E-1,-5.207388848E-2,1.023880386E1
2.100919392E0,1.873462796E-1,-1.238999367E-1,9.218873978E0
2.102917048E0,1.634042710E-1,-2.819172442E-1,1.031541824E1
2.104914757E0,4.848258570E-2,1.586158574E-1,8.826224327E0
2.106912465E0,9.636662155E-2,-1.430535465E-1,9.266757965E0
2.108910225E0,1.203086376E-1,-7.272387743E-1,1.024838066E1
2.110908038E0,1.442506462E-1,-8.756792545E-1,1.138802052E1
2.112905902E0,-2.334346622E-2,-4.303577542E-1,1.004247856E1
2.114903819E0,1.538274586E-1,-6.165069342E-2,9.573215485E0
2.116901788E0,3.890577704E-2,3.411737457E-2,9.075222015E0
2.118899757E0,4.369417951E-2,-1.286883354E-1,8.672995567E0
2.120897725E0,6.763619930E-2,-1.430535465E-1,9.985017776E0
2.122895694E0,2.304419130E-1,-1.669955701E-1,9.156624794E0
2.124893663E0,3.693056107E-1,-6.123170853E-1,1.090917969E1
2.126891632E0,1.921346933E-1,-9.995792061E-2,1.012388229E1
2.128889600E0,1.969230920E-1,5.327098817E-2,9.357737541E0
2.130887569E0,1.634042710E-1,1.250970364E-1,9.582792282E0
2.132885538E0,2.304419130E-1,-1.957259923E-1,9.783905029E0
2.134883507E0,2.112883031E-1,-5.207388848E-2,1.021965027E1
2.136881475E0,1.107318252E-1,2.352303118E-1,8.979453087E0
2.138879444E0,1.538274586E-1,-3.292027488E-2,1.012388229E1
2.140877309E0,1.729810685E-1,1.634042710E-1,9.429563522E0
2.142875173E0,1.155202314E-1,2.304419130E-1,9.185355186E0
2.144873038E0,1.442506462E-1,-2.627636492E-1,9.822212219E0
2.146870902E0,1.394622475E-1,-3.728969097E-1,1.068891335E1
2.148868715E0,2.932897024E-2,4.842272997E-1,9.429563522E0
2.150866527E0,4.848258570E-2,4.267664552E-1,8.289923668E0
2.152864340E0,1.155202314E-1,-4.447229803E-1,1.038724422E1
2.154862152E0,1.155202314E-1,-2.340332121E-1,1.069849014E1
2.156859965E0,2.454056777E-2,4.650736749E-1,8.524555206E0
2.158857777E0,8.200141042E-2,3.890577704E-2,1.008078671E1
2.160855590E0,6.284779310E-2,4.369417951E-2,1.035372543E1
2.162853402E0,-7.122749835E-2,4.124012291E-1,1.020528507E1
2.164851215E0,-1.526303589E-1,2.160767019E-1,8.759186745E0
2.166849027E0,5.985504249E-4,-3.872621357E-1,1.111987019E1
2.168846840E0,-8.559270948E-2,-3.202244639E-1,9.458293915E0
2.170844652E0,-4.189853091E-3,5.081692934E-1,1.010472870E1
2.172842465E0,-2.436100245E-1,8.816647530E-1,7.839813232E0
2.174840277E0,-1.669955701E-1,-7.601590455E-2,9.601945877E0
2.176838090E0,-7.601590455E-2,-6.362590790E-1,1.166574764E1
2.178835902E0,-4.728548229E-2,-4.064157307E-1,9.860519409E0
2.180833715E0,-9.516951442E-2,1.490390599E-1,9.798270226E0
2.182831527E0,-1.957259923E-1,7.140706778E-1,7.796717644E0
2.184829340E0,-2.334346622E-2,1.873462796E-1,8.586804390E0
2.186827152E0,-6.643909961E-2,-6.075286865E-1,1.094748688E1
2.188824965E0,-6.165069342E-2,-4.830302000E-1,1.059314537E1
2.190822777E0,-1.526303589E-1,-8.080431074E-2,9.582792282E0
2.192820590E0,-7.122749835E-2,1.777694821E-1,9.252392769E0
2.194818402E0,-1.855506375E-2,5.327098817E-2,9.865307808E0
2.196816215E0,-1.191115379E-1,-8.559270948E-2,1.022443867E1
2.198814027E0,-2.627636492E-1,1.586158574E-1,9.448717117E0
2.200811840E0,-2.148796022E-1,-8.978256024E-3,9.635464668E0
2.202809652E0,-1.286883354E-1,-1.574187577E-1,9.578003883E0
2.204807517E0,-2.723404467E-1,-1.957259923E-1,1.022922707E1
2.206805434E0,-3.489548862E-1,-6.649895310E-1,1.088523769E1
2.208803402E0,-3.202244639E-1,-4.728548229E-2,9.889249802E0
2.210801371E0,-3.345896900E-1,5.368997455E-1,8.122329712E0
2.212799340E0,-3.968389332E-1,7.721300423E-2,8.831012726E0
2.214797309E0,-2.819172442E-1,-6.171054840E-1,1.036809063E1
2.216795277E0,-2.292448133E-1,-4.351461530E-1,1.039203262E1
2.218793246E0,-3.872621357E-1,4.650736749E-1,8.002618790E0
2.220791215E0,2.448071241E-1,-2.962824702E-1,1.122042656E1
2.222789184E0,8.678980917E-2,-5.692214370E-1,1.207755089E1
2.224787152E0,-3.585317135E-1,5.799953341E-1,8.462306023E0
2.226785121E0,-3.250128925E-1,4.746504724E-1,6.661866188E0
2.228783090E0,-6.643909961E-2,-6.171054840E-1,1.004726696E1
2.230781059E0,1.250970364E-1,-1.344942808E0,1.166574764E1
2.232779027E0,2.352303118E-1,-1.091157436E0,1.109113979E1
2.234776996E0,-5.207388848E-2,-7.601590455E-2,8.965087891E0
2.236774965E0,-4.249707982E-2,8.678980917E-2,7.677007675E0
2.238772934E0,1.729810685E-1,-7.463923693E-1,1.000417137E1
2.240770902E0,2.926911712E-1,-1.124676228E0,1.085171890E1
2.242768871E0,1.969230920E-1,-7.128735781E-1,1.020528507E1
2.244766840E0,1.777694821E-1,-1.430535465E-1,9.329007149E0
2.246764809E0,1.490390599E-1,-1.430535465E-1,8.874108315E0
2.248762777E0,2.879027426E-1,-3.681085110E-1,1.023880386E1
2.250760746E0,4.746504724E-1,-2.292448133E-1,9.779116631E0
2.252758507E0,4.698620737E-1,-4.447229803E-1,1.055483818E1
2.254756267E0,3.262099922E-1,-7.122749835E-2,1.012388229E1
2.256754027E0,3.597288132E-1,1.777694821E-1,8.467094421E0
2.258751788E0,4.411316514E-1,-3.058592677E-1,1.048780060E1
2.260749548E0,5.129576921E-1,-9.995792061E-2,9.793481827E0
2.262747309E0,5.560533404E-1,-4.728548229E-2,9.424775124E0
2.264745069E0,4.746504724E-1,8.200141042E-2,9.487024307E0
2.266742830E0,4.650736749E-1,1.975216344E-2,9.056067467E0
2.268740590E0,5.991489887E-1,-3.872621357E-1,1.022922707E1
2.270738350E0,5.512649417E-1,-2.867056429E-1,1.035851383E1
2.272736111E0,4.890156984E-1,-1.382651478E-1,9.352949142E0
2.274733871E0,5.129576921E-1,-3.058592677E-1,9.985017776E0
2.276731632E0,4.219780564E-1,-3.770867735E-2,1.031062984E1
2.278729392E0,3.453635871E-1,4.363432527E-1,8.270770073E0
2.280727152E0,3.262099922E-1,2.160767019E-1,9.324218750E0
2.282724913E0,3.501519859E-1,-2.148796022E-1,1.021007347E1
2.284722673E0,2.495955229E-1,-9.995792061E-2,9.951498985E0
2.286720434E0,1.586158574E-1,-1.813607812E-1,1.024838066E1
2.288718194E0,7.242459804E-2,2.831143439E-1,9.324218750E0
2.290715955E0,9.636662155E-2,3.740940094E-1,9.357737541E0
2.292713715E0,9.157821536E-2,4.848258570E-2,1.005205631E1
2.294711475E0,4.848258570E-2,1.873462796E-1,9.525331497E0
2.296709236E0,-1.855506375E-2,3.214215636E-1,9.788693428E0
2.298706996E0,-4.249707982E-2,4.028244317E-1,9.664195061E0
2.300704757E0,1.017535757E-2,3.453635871E-1,9.975440979E0
2.302702517E0,-3.292027488E-2,2.735375464E-1,1.077031612E1
2.304700277E0,-1.047463268E-1,5.847837925E-1,9.123106003E0
2.306698038E0,5.985504249E-4,3.070563674E-1,9.750386238E0
2.308695798E0,-4.249707982E-2,4.171896577E-1,9.573215485E0
2.310693559E0,5.985504249E-4,1.873462796E-1,9.333795547E0
2.312691319E0,7.721300423E-2,-1.813607812E-1,1.060272217E1
2.314689080E0,4.848258570E-2,-7.122749835E-2,9.755174637E0
2.316686892E0,7.242459804E-2,9.157821536E-2,9.855731010E0
2.318684757E0,1.203086376E-1,4.842272997E-1,8.629899979E0
2.320682621E0,1.011550203E-1,2.495955229E-1,8.998606682E0
2.322680486E0,1.442506462E-1,-4.734533727E-1,1.017655468E1
2.324678350E0,1.777694821E-1,-3.681085110E-1,1.093312168E1
2.326676215E0,1.538274586E-1,6.278793812E-1,9.075222015E0
2.328674080E0,1.011550203E-1,8.816647530E-1,7.830236435E0
2.330671944E0,4.369417951E-2,1.586158574E-1,1.039203262E1
2.332669809E0,1.729810685E-1,-2.340332121E-1,1.026753426E1
2.334667725E0,2.112883031E-1,-4.189853091E-3,9.879673004E0
2.336665694E0,2.591723204E-1,2.495955229E-1,1.009036350E1
2.338663715E0,1.729810685E-1,4.554968774E-1,9.103952408E0
2.340661788E0,2.879027426E-1,9.157821536E-2,1.017655468E1
2.342659861E0,2.879027426E-1,2.304419130E-1,1.063145256E1
2.344657934E0,1.250970364E-1,4.076128304E-1,9.352949142E0
2.346656007E0,2.352303118E-1,-1.855506375E-2,1.015261269E1
2.348654080E0,2.400187254E-1,4.650736749E-1,9.434351921E0
2.350652152E0,2.352303118E-1,6.326677799E-1,8.720879555E0
2.352650225E0,2.831143439E-1,2.352303118E-1,9.510966301E0
2.354648298E0,3.453635871E-1,-3.250128925E-1,1.006163311E1
2.356646371E0,4.315548539E-1,-6.362590790E-1,1.071285534E1
2.358644340E0,4.507084787E-1,1.490390599E-1,9.917980194E0
2.360642205E0,3.693056107E-1,4.938040972E-1,8.548497200E0
2.362640017E0,4.890156984E-1,5.386953708E-3,9.846154213E0
2.364637830E0,4.985924959E-1,6.763619930E-2,1.034414864E1
2.366635642E0,4.794389009E-1,1.346738487E-1,9.396044731E0
2.368633455E0,6.326677799E-1,2.932897024E-2,9.937133789E0
2.370631267E0,6.135141850E-1,2.256535143E-1,9.779116631E0
2.372629080E0,4.794389009E-1,2.639607489E-1,9.252392769E0
2.374626892E0,5.321113467E-1,1.442506462E-1,9.870096207E0
2.376624705E0,4.076128304E-1,1.346738487E-1,9.975440979E0
2.378622517E0,4.363432527E-1,2.256535143E-1,9.410409927E0
2.380620330E0,4.890156984E-1,2.256535143E-1,1.036330223E1
2.382618142E0,3.980360329E-1,4.650736749E-1,9.453505516E0
2.384615902E0,2.974795699E-1,3.405751884E-1,9.467870712E0
2.386613611E0,2.256535143E-1,1.825578809E-1,1.002332497E1
2.388611319E0,2.160767019E-1,2.783259451E-1,9.467870712E0
2.390609027E0,2.064998895E-1,-4.728548229E-2,1.004247856E1
2.392606736E0,8.200141042E-2,1.442506462E-1,1.002811337E1
2.394604444E0,1.298854351E-1,4.602852762E-1,8.893261909E0
2.396602152E0,7.721300423E-2,1.969230920E-1,9.194931984E0
2.398599861E0,6.763619930E-2,-2.723404467E-1,1.046864700E1
2.400597621E0,2.454056777E-2,-2.627636492E-1,1.021486187E1
2.402595434E0,5.985504249E-4,-7.122749835E-2,1.054047298E1
2.404593298E0,-8.559270948E-2,5.943605900E-1,9.151836395E0
2.406591215E0,-1.430535465E-1,6.470330358E-1,8.716091156E0
2.408589184E0,-2.388216257E-1,1.634042710E-1,9.611522675E0
2.410587205E0,-2.819172442E-1,-4.728548229E-2,1.043991661E1
2.412585225E0,-2.005143911E-1,3.501519859E-1,9.482235909E0
2.414583246E0,-1.430535465E-1,3.166331649E-1,9.276334763E0
2.416581267E0,-5.207388848E-2,1.873462796E-1,9.803058624E0
2.418579288E0,-9.516951442E-2,-3.292027488E-2,9.860519409E0
2.420577309E0,-2.813187055E-2,-2.579752207E-1,1.039203262E1
2.422575277E0,7.721300423E-2,5.386953708E-3,9.817423820E0
2.424573194E0,7.721300423E-2,2.639607489E-1,9.041702271E0
2.426571007E0,1.681926697E-1,-3.292027488E-2,9.534908295E0
2.428568819E0,1.298854351E-1,-1.813607812E-1,1.044949341E1
2.430566632E0,1.155202314E-1,-6.643909961E-2,9.443928719E0
2.432564392E0,1.873462796E-1,-1.526303589E-1,9.673771858E0
2.434562152E0,2.017114908E-1,-2.053027898E-1,1.022922707E1
2.436559913E0,1.442506462E-1,-1.765723825E-1,9.678560257E0
2.438557673E0,3.890577704E-2,-1.047463268E-1,9.946710587E0
2.440555434E0,3.411737457E-2,-1.191115379E-1,9.769539833E0
2.442553194E0,2.017114908E-1,-5.686229095E-2,9.635464668E0
2.444550955E0,2.017114908E-1,4.848258570E-2,9.625887871E0
2.446548715E0,2.256535143E-1,2.974795699E-1,9.046490669E0
2.448546527E0,1.921346933E-1,-9.516951442E-2,9.755174637E0
2.450544392E0,2.687491477E-1,-2.483984232E-1,1.033457184E1
2.452542309E0,1.873462796E-1,1.298854351E-1,9.587580681E0
2.454540277E0,2.543839216E-1,1.921346933E-1,9.367314339E0
2.456538298E0,3.166331649E-1,1.059434265E-1,9.668983459E0
2.458536319E0,4.076128304E-1,5.805939063E-2,9.922768593E0
2.460534340E0,3.884592354E-1,1.250970364E-1,1.002811337E1
2.462532361E0,3.118447661E-1,3.836708367E-1,9.271546364E0
2.464530382E0,2.495955229E-1,2.352303118E-1,9.228450775E0
2.466528142E0,3.357867897E-1,3.411737457E-2,1.015740108E1
2.468525850E0,4.459200799E-1,2.160767019E-1,9.807847023E0
2.470523559E0,5.464765429E-1,1.634042710E-1,9.209297180E0
2.472521267E0,5.752069354E-1,-3.633201122E-1,1.067933655E1
2.474518975E0,4.985924959E-1,-1.430535465E-1,1.039682102E1
2.476516684E0,4.411316514E-1,1.634042710E-1,9.089587212E0
2.478514392E0,3.453635871E-1,2.591723204E-1,9.702502251E0
2.480512100E0,2.831143439E-1,1.394622475E-1,9.759963036E0
2.482509809E0,3.788824081E-1,1.011550203E-1,9.702502251E0
2.484507517E0,3.262099922E-1,1.873462796E-1,9.726444244E0
2.486505225E0,3.549404144E-1,1.538274586E-1,9.668983459E0
2.488502934E0,2.783259451E-1,-9.516951442E-2,9.707290649E0
2.490500642E0,2.256535143E-1,-1.855506375E-2,1.021486187E1
2.492498350E0,3.262099922E-1,3.549404144E-1,9.381679535E0
2.494496059E0,2.879027426E-1,5.033808947E-1,9.161413193E0
2.496493767E0,1.298854351E-1,2.304419130E-1,9.621099472E0
2.498491527E0,1.298854351E-1,2.160767019E-1,9.707290649E0
2.500489340E0,1.298854351E-1,1.203086376E-1,9.975440979E0
2.502487205E0,8.678980917E-2,1.059434265E-1,9.827000618E0
2.504485121E0,9.157821536E-2,1.538274586E-1,9.764751434E0
2.506483090E0,1.107318252E-1,1.634042710E-1,1.004726696E1
2.508481111E0,1.155202314E-1,2.879027426E-1,9.841365814E0
2.510479184E0,2.454056777E-2,6.183025837E-1,9.314641953E0
2.512477309E0,5.985504249E-4,7.092822790E-1,8.692149162E0
2.514475486E0,4.369417951E-2,1.921346933E-1,1.002811337E1
2.516473715E0,1.394622475E-1,-7.122749835E-2,1.071764374E1
2.518471996E0,3.890577704E-2,2.454056777E-2,1.004247856E1
2.520470330E0,-3.770867735E-2,2.926911712E-1,9.692925453E0
2.522468663E0,4.369417951E-2,5.177460909E-1,8.945934296E0
2.524466996E0,-4.189853091E-3,2.064998895E-1,9.242815971E0
2.526465173E0,-2.813187055E-2,1.017535757E-2,1.057399178E1
2.528462830E0,1.011550203E-1,1.825578809E-1,9.774328232E0
2.530460486E0,1.729810685E-1,1.011550203E-1,9.779116631E0
2.532458142E0,1.203086376E-1,-9.038111567E-2,1.030584145E1
2.534455798E0,2.543839216E-1,-1.526303589E-1,9.759963036E0
2.536453455E0,2.879027426E-1,2.495955229E-1,9.582792282E0
2.538451163E0,3.788824081E-1,3.070563674E-1,9.080010414E0
2.540448923E0,3.932476342E-1,3.309983909E-1,8.926780701E0
2.542446736E0,3.788824081E-1,2.454056777E-2,9.544485092E0
2.544444600E0,3.597288132E-1,1.496376097E-2,1.032978344E1
2.546442517E0,3.788824081E-1,2.831143439E-1,9.482235909E0
2.548440486E0,5.368997455E-1,1.155202314E-1,9.970652580E0
2.550438507E0,5.321113467E-1,2.454056777E-2,1.099537086E1
2.552436580E0,5.033808947E-1,2.879027426E-1,9.606734276E0
2.554434705E0,4.459200799E-1,2.926911712E-1,1.005205631E1
2.556432882E0,3.836708367E-1,5.608417392E-1,9.764751434E0
2.558431111E0,3.118447661E-1,7.763199210E-1,8.979453087E0
2.560429392E0,3.693056107E-1,3.932476342E-1,9.319430351E0
2.562427673E0,3.645172119E-1,1.975216344E-2,1.063145256E1
2.564425955E0,3.166331649E-1,3.166331649E-1,1.031062984E1
2.566424236E0,3.645172119E-1,8.672995567E-1,8.864531517E0
2.568422517E0,3.309983909E-1,6.757634282E-1,9.228450775E0
2.570420798E0,2.448071241E-1,3.405751884E-1,9.716867447E0
2.572419080E0,3.118447661E-1,2.304419130E-1,9.946710587E0
2.574417361E0,2.208651006E-1,5.327098817E-2,1.007120991E1
2.576415642E0,1.969230920E-1,2.064998895E-1,9.932345390E0
2.578413767E0,3.597288132E-1,4.363432527E-1,9.539696693E0
2.580411736E0,3.118447661E-1,5.321113467E-1,9.127894402E0
2.582409705E0,9.157821536E-2,2.448071241E-1,9.506177902E0
2.584407673E0,-2.813187055E-2,2.112883031E-1,9.783905029E0
2.586405642E0,-8.978256024E-3,8.200141042E-2,9.831789017E0
2.588403611E0,3.890577704E-2,1.825578809E-1,9.836577415E0
2.590401580E0,9.636662155E-2,3.214215636E-1,9.453505516E0
2.592399548E0,-4.728548229E-2,2.400187254E-1,9.798270226E0
2.594397517E0,-4.189853091E-3,5.033808947E-1,9.309853554E0
2.596395486E0,8.200141042E-2,4.554968774E-1,9.544485092E0
2.598393455E0,8.678980917E-2,1.921346933E-1,9.965864182E0
2.600391423E0,5.386953708E-3,-1.574187577E-1,1.070327854E1
2.602389392E0,-8.080431074E-2,4.028244317E-1,1.019091988E1
2.604387413E0,5.386953708E-3,6.901286244E-1,8.730456352E0
2.606385486E0,5.386953708E-3,3.693056107E-1,1.011909389E1
2.608383663E0,3.890577704E-2,3.549404144E-1,1.068412495E1
2.610381944E0,5.985504249E-4,7.380126715E-1,9.257181168E0
2.612380330E0,-4.728548229E-2,7.715315223E-1,9.477447510E0
2.614378819E0,-1.047463268E-1,4.363432527E-1,9.716867447E0
2.616377413E0,8.678980917E-2,7.044938207E-1,9.261969566E0
2.618376111E0,1.155202314E-1,5.704185367E-1,9.807847023E0
2.620374913E0,1.107318252E-1,4.890156984E-1,1.004726696E1
2.622373767E0,1.298854351E-1,4.171896577E-1,1.002332497E1
2.624372673E0,1.634042710E-1,5.608417392E-1,9.922768593E0
2.626371632E0,1.490390599E-1,9.678560495E-1,9.151836395E0
2.628370642E0,4.848258570E-2,7.523778677E-1,8.869319916E0
2.630369652E0,-6.643909961E-2,4.363432527E-1,9.822212219E0
2.632368663E0,-1.382651478E-1,4.411316514E-1,1.033936024E1
2.634367673E0,-1.526303589E-1,4.746504724E-1,9.927556992E0
2.636366580E0,-4.728548229E-2,5.512649417E-1,9.731232643E0
2.638365069E0,-1.143231317E-1,5.799953341E-1,9.515754700E0
2.640363559E0,-1.957259923E-1,3.022679687E-1,9.357737541E0
2.642362048E0,-2.531868219E-1,2.112883031E-1,9.769539833E0
2.644360538E0,-3.202244639E-1,4.267664552E-1,9.405621529E0
2.646359027E0,-1.957259923E-1,5.368997455E-1,9.659406662E0
2.648357517E0,-2.244564146E-1,2.783259451E-1,1.013824749E1
2.650356007E0,-2.053027898E-1,7.721300423E-2,1.127788734E1
2.652354496E0,-5.686229095E-2,5.512649417E-1,9.769539833E0
2.654352986E0,-1.143231317E-1,7.475894690E-1,8.984241486E0
2.656351475E0,-9.995792061E-2,4.554968774E-1,1.018613148E1
2.658349913E0,-1.813607812E-1,3.788824081E-1,9.793481827E0
2.660348298E0,-1.813607812E-1,4.411316514E-1,9.903614998E0
2.662346684E0,-7.601590455E-2,5.368997455E-1,9.659406662E0
2.664345069E0,5.386953708E-3,4.938040972E-1,9.467870712E0
2.666343455E0,-1.334767491E-1,4.938040972E-1,9.530119896E0
2.668341840E0,-1.957259923E-1,4.985924959E-1,9.223662376E0
2.670340225E0,-8.559270948E-2,2.974795699E-1,9.142259598E0
2.672338611E0,-7.122749835E-2,7.721300423E-2,1.049258900E1
2.674336996E0,-8.080431074E-2,1.538274586E-1,9.961075783E0
2.676335382E0,-2.723404467E-1,3.501519859E-1,9.951498985E0
2.678333767E0,-3.633201122E-1,6.087257862E-1,9.381679535E0
2.680332152E0,-3.393780887E-1,6.374561787E-1,9.017760277E0
2.682330590E0,-3.441664875E-1,3.022679687E-1,1.022922707E1
2.684329027E0,-2.914940715E-1,2.974795699E-1,1.014782429E1
2.686327465E0,-2.340332121E-1,5.321113467E-1,9.539696693E0
2.688325902E0,-2.340332121E-1,5.560533404E-1,9.601945877E0
2.690324340E0,-3.441664875E-1,4.411316514E-1,9.558850288E0
2.692322777E0,-4.399345517E-1,5.799953341E-1,9.309853554E0
2.694321215E0,-4.399345517E-1,6.183025837E-1,9.539696693E0
2.696319705E0,-4.734533727E-1,2.208651006E-1,1.066975975E1
2.698318246E0,-4.064157307E-1,4.028244317E-1,1.036330223E1
2.700316840E0,-4.686649740E-1,7.428010702E-1,9.156624794E0
2.702315486E0,-4.351461530E-1,8.146271110E-1,9.333795547E0
2.704314132E0,-4.926069975E-1,6.374561787E-1,9.463082314E0
2.706312777E0,-3.250128925E-1,3.022679687E-1,1.006642151E1
2.708311423E0,-2.962824702E-1,5.273229480E-1,9.846154213E0
2.710310069E0,-3.345896900E-1,6.566098332E-1,8.462306023E0
2.712308715E0,-1.861491799E-1,-1.765723825E-1,1.069370174E1
2.714307361E0,-1.334767491E-1,-9.038111567E-2,1.184770679E1
2.716305902E0,-2.005143911E-1,5.033808947E-1,9.261969566E0
2.718304184E0,-2.053027898E-1,5.177460909E-1,8.720879555E0
2.720302465E0,-2.292448133E-1,4.219780564E-1,9.003395081E0
2.722300746E0,-2.531868219E-1,2.352303118E-1,9.271546364E0
2.724299027E0,-1.430535465E-1,3.597288132E-1,9.501389503E0
2.726297309E0,-1.855506375E-2,1.825578809E-1,9.525331497E0
2.728295590E0,-4.249707982E-2,-1.855506375E-2,1.114860058E1
2.730293871E0,-8.080431074E-2,4.698620737E-1,9.721655846E0
2.732292152E0,-7.122749835E-2,3.884592354E-1,9.022548676E0
2.734290486E0,-5.686229095E-2,1.825578809E-1,1.039682102E1
2.736288871E0,-1.143231317E-1,3.309983909E-1,9.946710587E0
2.738287257E0,5.386953708E-3,6.518214345E-1,9.238027573E0
2.740285642E0,1.107318252E-1,6.278793812E-1,9.668983459E0
2.742284425E0,5.805939063E-2,4.459200799E-1,1.016218948E1
2.744282811E0,6.763619930E-2,4.890156984E-1,1.044470501E1
2.746281196E0,1.975216344E-2,6.949170232E-1,9.352949142E0
2.748279582E0,1.011550203E-1,6.613982320E-1,9.616311073E0
2.750277967E0,8.678980917E-2,6.422445774E-1,9.477447510E0
2.752276353E0,1.059434265E-1,6.326677799E-1,9.443928719E0
2.754274738E0,1.394622475E-1,3.262099922E-1,9.683348656E0
2.756273123E0,1.921346933E-1,2.831143439E-1,1.066497135E1
2.758271509E0,1.969230920E-1,4.602852762E-1,9.463082314E0
2.760269842E0,1.203086376E-1,5.321113467E-1,9.649829865E0
2.762268071E0,1.203086376E-1,4.315548539E-1,9.563638687E0
2.764266300E0,1.729810685E-1,4.076128304E-1,9.606734276E0
2.766264530E0,1.586158574E-1,3.309983909E-1,1.009994030E1
2.768262759E0,1.250970364E-1,4.794389009E-1,9.539696693E0
2.770260988E0,7.242459804E-2,6.183025837E-1,9.482235909E0
2.772259217E0,5.805939063E-2,4.842272997E-1,9.563638687E0
2.774257446E0,8.200141042E-2,4.363432527E-1,9.568427086E0
2.776255675E0,-1.855506375E-2,3.932476342E-1,9.831789017E0
2.778253905E0,1.346738487E-1,3.262099922E-1,1.006163311E1
2.780252134E0,1.155202314E-1,4.794389009E-1,1.026274586E1
2.782250363E0,9.157821536E-2,7.236474752E-1,9.745597839E0
2.784248592E0,6.284779310E-2,8.720879555E-1,8.989029884E0
2.786246821E0,5.327098817E-2,8.625111580E-1,9.046490669E0
2.788245050E0,1.155202314E-1,4.842272997E-1,9.922768593E0
2.790243280E0,1.011550203E-1,8.200141042E-2,1.129225254E1
2.792241561E0,8.200141042E-2,5.943605900E-1,1.000895977E1
2.794239894E0,1.155202314E-1,9.439139962E-1,8.663418770E0
2.796238280E0,5.805939063E-2,7.571662664E-1,9.525331497E0
2.798236717E0,1.729810685E-1,5.943605900E-1,9.257181168E0
2.800235155E0,1.538274586E-1,4.076128304E-1,9.664195061E0
2.802233592E0,1.921346933E-1,3.645172119E-1,1.013345909E1
2.804232030E0,2.400187254E-1,4.890156984E-1,9.668983459E0
2.806230467E0,1.825578809E-1,5.368997455E-1,9.788693428E0
2.808228905E0,1.346738487E-1,3.836708367E-1,1.021486187E1
2.810227342E0,2.064998895E-1,2.639607489E-1,1.035851383E1
2.812225780E0,1.490390599E-1,6.230909824E-1,9.166201591E0
2.814224217E0,1.059434265E-1,6.039373875E-1,9.194931984E0
2.816222655E0,5.327098817E-2,5.512649417E-1,9.180566788E0
2.818221092E0,1.107318252E-1,1.490390599E-1,1.040160942E1
2.820219373E0,2.208651006E-1,3.740940094E-1,9.985017776E0
2.822217550E0,1.155202314E-1,4.267664552E-1,9.491812706E0
2.824215728E0,1.490390599E-1,7.332242727E-1,9.185355186E0
2.826213905E0,1.777694821E-1,7.906851172E-1,9.324218750E0
2.828212082E0,1.921346933E-1,3.166331649E-1,9.803058624E0
2.830210259E0,2.208651006E-1,8.678980917E-2,1.098100567E1
2.832208436E0,2.926911712E-1,6.135141850E-1,9.463082314E0
2.834206613E0,2.495955229E-1,9.917980433E-1,9.084798813E0
2.836204790E0,2.256535143E-1,6.087257862E-1,9.338583946E0
2.838203019E0,8.678980917E-2,3.357867897E-1,1.067454815E1
2.840201300E0,2.687491477E-1,4.507084787E-1,9.932345390E0
2.842199634E0,1.634042710E-1,7.906851172E-1,9.659406662E0
2.844198019E0,3.022679687E-1,8.433575630E-1,9.400833130E0
2.846196457E0,1.873462796E-1,5.177460909E-1,9.970652580E0
2.848194946E0,1.969230920E-1,4.554968774E-1,1.003290176E1
2.850193436E0,2.304419130E-1,7.954735160E-1,9.357737541E0
2.852191925E0,2.735375464E-1,8.720879555E-1,9.386467934E0
2.854190415E0,1.777694821E-1,9.582792521E-1,9.520543098E0
2.856188905E0,1.059434265E-1,5.752069354E-1,9.606734276E0
2.858187394E0,1.825578809E-1,1.921346933E-1,1.070327854E1
2.860185884E0,1.298854351E-1,5.895721912E-1,1.027232265E1
2.862184373E0,1.298854351E-1,1.168969035E0,8.534132004E0
2.864182863E0,8.678980917E-2,1.020528436E0,8.720879555E0
2.866181353E0,-8.978256024E-3,4.554968774E-1,1.023880386E1
2.868179842E0,2.454056777E-2,3.453635871E-1,1.046385860E1
2.870178175E0,-5.207388848E-2,5.991489887E-1,1.029626465E1
2.872176509E0,-4.728548229E-2,7.906851172E-1,9.736021042E0
2.874174842E0,3.890577704E-2,1.063624144E0,9.290699959E0
2.876173175E0,-4.189853091E-3,7.954735160E-1,8.888473511E0
2.878171509E0,-5.686229095E-2,2.591723204E-1,1.038245583E1
2.880169842E0,-7.122749835E-2,4.698620737E-1,1.015740108E1
2.882168175E0,3.890577704E-2,9.199720025E-1,8.898050308E0
2.884166509E0,5.327098817E-2,5.752069354E-1,9.482235909E0
2.886164842E0,1.155202314E-1,2.112883031E-1,1.032020664E1
2.888163175E0,5.386953708E-3,2.783259451E-1,1.059793377E1
2.890161509E0,1.203086376E-1,5.512649417E-1,1.021486187E1
2.892159842E0,1.496376097E-2,6.518214345E-1,9.185355186E0
2.894158175E0,5.985504249E-4,7.571662664E-1,9.190143585E0
2.896156509E0,3.411737457E-2,4.411316514E-1,9.659406662E0
2.898154842E0,9.157821536E-2,2.735375464E-1,1.012867069E1
2.900153175E0,4.848258570E-2,4.507084787E-1,1.021486187E1
2.902151509E0,5.805939063E-2,8.385691643E-1,9.170989990E0
2.904149842E0,-9.995792061E-2,1.231218219E0,8.309077263E0
2.906148175E0,-1.765723825E-1,7.715315223E-1,8.601169586E0
2.908146509E0,-1.765723825E-1,-1.382651478E-1,1.150773048E1
2.910144842E0,-6.643909961E-2,2.687491477E-1,1.105283260E1
2.912143175E0,-5.207388848E-2,8.002619147E-1,9.103952408E0
2.914141509E0,1.496376097E-2,6.757634282E-1,9.103952408E0
2.916139842E0,-3.292027488E-2,5.033808947E-1,1.031062984E1
2.918138175E0,-8.559270948E-2,5.512649417E-1,9.654618263E0
2.920136509E0,-1.376665942E-2,8.912416101E-1,9.199720383E0
2.922134842E0,-6.165069342E-2,7.140706778E-1,9.032125473E0
2.924133175E0,-2.813187055E-2,6.278793812E-1,1.007120991E1
2.926131509E0,1.496376097E-2,6.661866307E-1,1.010472870E1
2.928129842E0,1.155202314E-1,5.033808947E-1,9.913191795E0
2.930128175E0,4.848258570E-2,2.783259451E-1,1.099537086E1
2.932126509E0,1.298854351E-1,5.895721912E-1,9.697713852E0
2.934124842E0,2.454056777E-2,9.391255975E-1,8.514978409E0
2.936123228E0,-8.559270948E-2,8.146271110E-1,9.103952408E0
2.938121665E0,-9.995792061E-2,2.735375464E-1,9.836577415E0
2.940120155E0,-1.286883354E-1,-8.559270948E-2,1.156040287E1
2.942118696E0,-1.286883354E-1,4.459200799E-1,1.013345909E1
2.944117290E0,-1.095347255E-1,9.056068063E-1,9.386467934E0
2.946115884E0,-2.196680009E-1,1.010951638E0,8.668207169E0
2.948114478E0,-2.867056429E-1,6.087257862E-1,8.797493935E0
2.950113071E0,-1.669955701E-1,2.879027426E-1,1.045907021E1
2.952111665E0,-1.238999367E-1,8.200141042E-2,9.831789017E0
2.954110155E0,-1.430535465E-1,-2.334346622E-2,1.109113979E1
2.956108436E0,-2.579752207E-1,8.960300088E-1,8.902838707E0
2.958106613E0,-1.717839688E-1,5.991489887E-1,8.534132004E0
2.960104790E0,-1.191115379E-1,2.208651006E-1,1.121563816E1
2.962102967E0,-1.238999367E-1,6.949170232E-1,9.108740807E0
2.964101144E0,-7.122749835E-2,4.315548539E-1,9.348160744E0
2.966099321E0,-1.622071713E-1,8.678980917E-2,1.111508179E1
2.968097498E0,-1.813607812E-1,-1.430535465E-1,1.028189945E1
2.970095675E0,-1.191115379E-1,3.980360329E-1,1.004726696E1
2.972093853E0,-5.207388848E-2,1.054047346E0,7.064092159E0
2.974092030E0,2.932897024E-2,4.459200799E-1,8.763975143E0
2.976090207E0,8.200141042E-2,-4.926069975E-1,1.072722054E1
2.978088384E0,1.250970364E-1,-3.441664875E-1,1.189080238E1
2.980086561E0,9.636662155E-2,5.464765429E-1,9.170989990E0
2.982084790E0,5.327098817E-2,7.332242727E-1,8.639476776E0
2.984083071E0,-2.334346622E-2,4.219780564E-1,9.841365814E0
2.986081405E0,3.890577704E-2,6.709750295E-1,8.720879555E0
2.988079790E0,7.721300423E-2,8.577227592E-1,8.160636902E0
2.990078228E0,1.298854351E-1,-7.416039705E-1,1.126831055E1
2.992076717E0,2.495955229E-1,-1.000177741E0,1.337999630E1
2.994075259E0,3.214215636E-1,5.847837925E-1,9.951498985E0
2.996073853E0,2.112883031E-1,1.346139908E0,7.710526466E0
2.998072498E0,2.160767019E-1,1.250371814E0,7.854178905E0
3.000071196E0,1.921346933E-1,5.081692934E-1,9.807847023E0
3.002069946E0,3.214215636E-1,3.836708367E-1,1.138802052E1
3.004068696E0,2.304419130E-1,8.816647530E-1,9.779116631E0
3.006067446E0,2.352303118E-1,9.008184075E-1,9.099164009E0
3.008066196E0,1.155202314E-1,9.247604012E-1,9.846154213E0
3.010064946E0,1.490390599E-1,7.858967185E-1,9.396044731E0
3.012063696E0,1.873462796E-1,7.044938207E-1,9.932345390E0
3.014062082E0,1.634042710E-1,7.858967185E-1,9.003395081E0
3.016060259E0,1.298854351E-1,5.464765429E-1,1.022443867E1
3.018058436E0,2.064998895E-1,4.938040972E-1,1.032020664E1
3.020056613E0,2.017114908E-1,7.523778677E-1,9.305065155E0
3.022054790E0,1.394622475E-1,6.374561787E-1,9.405621529E0
3.024053019E0,8.678980917E-2,4.267664552E-1,9.870096207E0
3.026051300E0,3.411737457E-2,4.554968774E-1,9.817423820E0
3.028049634E0,2.454056777E-2,2.639607489E-1,1.027232265E1
3.030048019E0,8.678980917E-2,3.549404144E-1,1.021965027E1
3.032046509E0,2.932897024E-2,8.672995567E-1,8.763975143E0
3.034045103E0,9.636662155E-2,1.044470549E0,8.821435928E0
3.036043800E0,-6.165069342E-2,5.608417392E-1,9.941922188E0
3.038042603E0,-1.376665942E-2,4.267664552E-1,1.037287903E1
3.040041509E0,6.284779310E-2,4.507084787E-1,1.044949341E1
3.042040467E0,1.059434265E-1,6.709750295E-1,9.903614998E0
3.044039478E0,1.681926697E-1,7.619546652E-1,9.487024307E0
3.046038488E0,1.155202314E-1,6.518214345E-1,9.908403397E0
3.048037498E0,1.155202314E-1,8.529343605E-1,8.936357498E0
3.050036040E0,5.386953708E-3,9.103952050E-1,8.740033150E0
3.052034425E0,6.763619930E-2,5.512649417E-1,1.016218948E1
3.054032811E0,1.011550203E-1,4.076128304E-1,1.070327854E1
3.056031196E0,2.932897024E-2,2.208651006E-1,9.798270226E0
3.058029582E0,1.442506462E-1,3.022679687E-1,1.051653099E1
3.060027967E0,2.112883031E-1,6.326677799E-1,9.692925453E0
3.062026353E0,1.107318252E-1,9.439139962E-1,8.658630371E0
3.064024738E0,1.346738487E-1,5.608417392E-1,9.961075783E0
3.066023123E0,1.873462796E-1,6.039373875E-1,9.850942612E0
3.068021509E0,2.256535143E-1,7.092822790E-1,8.481459618E0
3.070019894E0,2.256535143E-1,2.495955229E-1,9.975440979E0
3.072018280E0,1.921346933E-1,9.636662155E-2,1.052610779E1
3.074016665E0,3.597288132E-1,2.639607489E-1,9.769539833E0
3.076015050E0,3.166331649E-1,4.890156984E-1,1.037766743E1
3.078013436E0,1.825578809E-1,3.740940094E-1,9.300276756E0
3.080011821E0,1.250970364E-1,3.411737457E-2,1.088044930E1
3.082010207E0,1.203086376E-1,4.363432527E-1,9.850942612E0
3.084008592E0,2.400187254E-1,1.168969035E0,7.600393295E0
3.086006978E0,2.879027426E-1,6.374561787E-1,8.783128738E0
3.088005363E0,2.112883031E-1,-5.452794433E-1,1.083256531E1
3.090003748E0,1.777694821E-1,-6.649895310E-1,1.192432117E1
3.092002134E0,2.879027426E-1,4.698620737E-1,9.439140320E0
3.094000519E0,2.639607489E-1,9.582792521E-1,8.265981674E0
3.095998905E0,2.304419130E-1,1.097142935E0,8.117541313E0
3.097997342E0,1.634042710E-1,3.645172119E-1,9.094375610E0
3.099995832E0,1.825578809E-1,-2.914940715E-1,1.123479176E1
3.101994321E0,1.969230920E-1,2.112883031E-1,1.043991661E1
3.103992811E0,2.064998895E-1,4.363432527E-1,1.017176628E1
3.105991300E0,3.357867897E-1,5.847837925E-1,9.716867447E0
3.107989790E0,2.974795699E-1,1.394622475E-1,1.006163311E1
3.109988280E0,2.495955229E-1,4.171896577E-1,1.006163311E1
3.111986769E0,7.242459804E-2,4.411316514E-1,9.113529205E0
3.113985103E0,8.200141042E-2,4.890156984E-1,9.496601105E0
3.115983280E0,3.890577704E-2,3.932476342E-1,9.214085579E0
3.117981457E0,8.200141042E-2,5.799953341E-1,9.405621529E0
3.119979634E0,2.932897024E-2,3.411737457E-2,1.036330223E1
3.121977811E0,2.454056777E-2,-3.770867735E-2,1.107198620E1
3.123975988E0,2.932897024E-2,3.022679687E-1,1.077031612E1
3.125974165E0,9.636662155E-2,6.949170232E-1,8.883685112E0
3.127972342E0,1.496376097E-2,7.906851172E-1,7.724891663E0
3.129970519E0,5.327098817E-2,5.368997455E-1,9.836577415E0
3.131968696E0,5.805939063E-2,2.256535143E-1,9.352949142E0
3.133966873E0,2.932897024E-2,-3.292027488E-2,9.745597839E0
3.135965050E0,-9.995792061E-2,-7.601590455E-2,1.098100567E1
3.137963228E0,-1.334767491E-1,3.411737457E-2,9.204508781E0
3.139961405E0,1.017535757E-2,1.155202314E-1,9.458293915E0
3.141959582E0,2.454056777E-2,-2.813187055E-2,1.012388229E1
3.143957759E0,-2.813187055E-2,4.369417951E-2,9.309853554E0
3.145955936E0,-1.669955701E-1,-2.962824702E-1,9.941922188E0
3.147954113E0,-2.292448133E-1,-2.436100245E-1,1.024838066E1
3.149952290E0,-5.207388848E-2,6.763619930E-2,9.376891136E0
3.151950467E0,-5.686229095E-2,-3.872621357E-1,1.068412495E1
3.153948644E0,-1.382651478E-1,5.327098817E-2,9.913191795E0
3.155946821E0,-7.601590455E-2,5.560533404E-1,8.668207169E0
3.157944998E0,-2.813187055E-2,2.831143439E-1,9.630676270E0
3.159943175E0,-8.978256024E-3,1.017535757E-2,1.121563816E1
3.161941405E0,-1.376665942E-2,3.884592354E-1,9.467870712E0
3.163939686E0,1.011550203E-1,4.698620737E-1,9.386467934E0
3.165938019E0,-1.191115379E-1,3.405751884E-1,9.080010414E0
3.167936405E0,-1.095347255E-1,6.374561787E-1,9.424775124E0
3.169934790E0,1.017535757E-2,5.943605900E-1,8.500613213E0
3.171933175E0,-1.047463268E-1,-8.559270948E-2,9.510966301E0
3.173931561E0,-5.686229095E-2,-7.032967210E-1,1.196741676E1
3.175929946E0,-1.376665942E-2,-3.824737072E-1,1.032499504E1
3.177928332E0,-2.334346622E-2,2.208651006E-1,9.769539833E0
3.179926717E0,-3.770867735E-2,5.177460909E-1,8.831012726E0
3.181925155E0,-2.334346622E-2,2.974795699E-1,8.280346870E0
3.183923592E0,-2.813187055E-2,-3.681085110E-1,1.031541824E1
3.185922030E0,-4.189853091E-3,-3.202244639E-1,1.037287903E1
3.187920467E0,3.411737457E-2,-7.122749835E-2,9.889249802E0
3.189918905E0,9.636662155E-2,3.890577704E-2,9.520543098E0
3.191917342E0,2.591723204E-1,5.985504249E-4,9.276334763E0
3.193915780E0,1.969230920E-1,-3.010708690E-1,1.008557510E1
3.195914217E0,2.639607489E-1,-2.627636492E-1,1.033936024E1
3.197912655E0,1.825578809E-1,1.250970364E-1,9.180566788E0
3.199911092E0,1.442506462E-1,2.687491477E-1,9.175778389E0
3.201909530E0,1.250970364E-1,-2.531868219E-1,9.975440979E0
3.203907967E0,-4.189853091E-3,-2.148796022E-1,1.043991661E1
3.205906405E0,8.200141042E-2,-2.771288455E-1,9.750386238E0
3.207904842E0,6.763619930E-2,-1.765723825E-1,1.048301220E1
3.209903280E0,3.411737457E-2,1.969230920E-1,9.137471199E0
3.211901717E0,1.203086376E-1,8.529343605E-1,8.170213699E0
3.213900155E0,6.763619930E-2,3.166331649E-1,8.706514359E0
3.215898592E0,3.890577704E-2,-1.277905107E0,1.157955647E1
3.217897030E0,7.242459804E-2,-1.038484931E0,1.429936981E1
3.219895467E0,-2.813187055E-2,9.774328470E-1,7.107187748E0
3.221893905E0,-1.376665942E-2,6.230909824E-1,7.533355713E0
3.223892342E0,-1.191115379E-1,-4.255693555E-1,1.064102936E1
3.225890780E0,-1.622071713E-1,-1.286883354E-1,9.975440979E0
3.227889217E0,-9.516951442E-2,3.118447661E-1,8.840589523E0
3.229887498E0,-1.376665942E-2,1.496376097E-2,9.630676270E0
3.231885780E0,-1.047463268E-1,-2.962824702E-1,9.889249802E0
3.233884061E0,-1.957259923E-1,-4.973953962E-1,1.120606136E1
3.235882342E0,-1.478419602E-1,-1.855506375E-2,9.985017776E0
3.237880623E0,-2.340332121E-1,6.039373875E-1,8.103176117E0
3.239878905E0,-4.112041295E-1,2.304419130E-1,8.040925980E0
3.241877186E0,-3.202244639E-1,-5.021837950E-1,1.079904652E1
3.243875467E0,-5.309142470E-1,-7.368155718E-1,1.036330223E1
3.245873800E0,-3.345896900E-1,-7.894880176E-1,1.125873375E1
3.247872186E0,-3.250128925E-1,3.890577704E-2,9.783905029E0
3.249870623E0,-4.159925580E-1,3.549404144E-1,7.767987251E0
3.251869061E0,-3.489548862E-1,-9.995792061E-2,9.381679535E0
3.253867498E0,-4.207809567E-1,-4.399345517E-1,1.043033981E1
3.255865936E0,-4.447229803E-1,-1.909375787E-1,1.032020664E1
3.257864373E0,-3.585317135E-1,-2.867056429E-1,9.496601105E0
3.259862811E0,-3.202244639E-1,-1.855506375E-2,9.702502251E0
3.261861248E0,-3.872621357E-1,-1.909375787E-1,9.798270226E0
3.263859686E0,-2.388216257E-1,-3.681085110E-1,1.047822380E1
3.265858123E0,-2.579752207E-1,1.729810685E-1,9.697713852E0
3.267856561E0,-2.292448133E-1,3.549404144E-1,8.012195587E0
3.269854998E0,-1.095347255E-1,7.721300423E-2,9.850942612E0
3.271853436E0,-4.728548229E-2,-5.357026458E-1,1.107677460E1
3.273851873E0,-1.047463268E-1,-3.728969097E-1,1.046385860E1
3.275850311E0,-1.430535465E-1,1.011550203E-1,8.969876289E0
3.277848748E0,-1.574187577E-1,-2.813187055E-2,9.592369080E0
3.279847186E0,-1.095347255E-1,1.011550203E-1,9.386467934E0
3.281845623E0,-1.191115379E-1,2.687491477E-1,9.180566788E0
3.283843905E0,-1.191115379E-1,-1.143231317E-1,9.223662376E0
3.285842082E0,-6.643909961E-2,-7.128735781E-1,1.122521496E1
3.287840259E0,2.783259451E-1,-5.165489912E-1,1.088044930E1
3.289838436E0,3.357867897E-1,-3.728969097E-1,1.011909389E1
3.291836613E0,5.386953708E-3,2.543839216E-1,8.960299492E0
3.293834790E0,-1.334767491E-1,6.230909824E-1,5.814318657E0
3.295832967E0,1.017535757E-2,-1.134253025E0,9.688137054E0
3.297831196E0,6.763619930E-2,-1.526902080E0,1.212064648E1
3.299829478E0,1.107318252E-1,-8.708908558E-1,1.172320843E1
3.301827811E0,6.763619930E-2,5.752069354E-1,8.869319916E0
3.303826196E0,6.763619930E-2,1.054047346E0,7.456741333E0
3.305824634E0,1.017535757E-2,4.650736749E-1,8.941145897E0
3.307823123E0,8.678980917E-2,-2.579752207E-1,1.057878017E1
3.309821665E0,1.203086376E-1,-3.250128925E-1,1.134492493E1
3.311820259E0,1.298854351E-1,-1.095347255E-1,1.002811337E1
3.313818853E0,2.543839216E-1,5.386953708E-3,1.020528507E1
3.315817446E0,1.729810685E-1,1.250970364E-1,9.716867447E0
3.317816040E0,1.969230920E-1,2.160767019E-1,9.118317604E0
3.319814634E0,2.304419130E-1,3.597288132E-1,9.041702271E0
3.321813071E0,1.155202314E-1,6.284779310E-2,9.185355186E0
3.323811509E0,1.969230920E-1,-3.585317135E-1,1.004726696E1
3.325809946E0,4.848258570E-2,-5.021837950E-1,1.024838066E1
3.327808384E0,-1.376665942E-2,-6.123170853E-1,1.047343540E1
3.329806717E0,5.386953708E-3,-2.723404467E-1,1.064581776E1
3.331805050E0,1.017535757E-2,3.932476342E-1,9.012971878E0
3.333803384E0,-3.770867735E-2,4.171896577E-1,8.040925980E0
3.335801717E0,1.496376097E-2,-3.872621357E-1,9.898826599E0
3.337800050E0,-3.292027488E-2,-7.511807680E-1,1.121084976E1
3.339798384E0,-4.249707982E-2,-1.334767491E-1,9.482235909E0
3.341796717E0,-1.855506375E-2,1.490390599E-1,8.696937561E0
3.343795050E0,-1.717839688E-1,-3.770867735E-2,9.448717117E0
3.345793332E0,-1.238999367E-1,-4.207809567E-1,9.846154213E0
3.347791509E0,-1.669955701E-1,-3.872621357E-1,1.030584145E1
3.349789686E0,-1.191115379E-1,-5.686229095E-2,9.496601105E0
3.351787863E0,-3.770867735E-2,5.985504249E-4,9.951498985E0
3.353786040E0,-1.574187577E-1,2.831143439E-1,9.233239174E0
3.355784217E0,-2.340332121E-1,1.975216344E-2,9.477447510E0
3.357782394E0,-2.148796022E-1,-1.669955701E-1,1.057878017E1
3.359780571E0,-2.244564146E-1,-1.478419602E-1,1.056441498E1
3.361778800E0,-2.627636492E-1,2.783259451E-1,9.506177902E0
3.363777082E0,-1.430535465E-1,3.980360329E-1,9.261969566E0
3.365775415E0,-1.191115379E-1,3.549404144E-1,9.080010414E0
3.367773800E0,-1.622071713E-1,1.107318252E-1,1.027711105E1
3.369772238E0,-6.643909961E-2,1.538274586E-1,1.019570827E1
3.371770728E0,-1.430535465E-1,3.309983909E-1,9.348160744E0
3.373769269E0,-9.516951442E-2,3.788824081E-1,9.491812706E0
3.375767811E0,1.496376097E-2,2.495955229E-1,9.846154213E0
3.377766353E0,-7.601590455E-2,1.011550203E-1,9.290699959E0
3.379764894E0,-2.334346622E-2,-3.633201122E-1,1.011909389E1
3.381763436E0,-6.643909961E-2,-4.638765752E-1,1.046864700E1
3.383761978E0,-2.334346622E-2,-2.100912035E-1,1.008557510E1
3.385760519E0,-4.728548229E-2,1.155202314E-1,9.257181168E0
3.387759061E0,-8.080431074E-2,2.448071241E-1,9.012971878E0
3.389757603E0,-4.189853091E-3,-6.165069342E-2,9.362525940E0
3.391756144E0,-2.813187055E-2,-2.148796022E-1,1.029147625E1
3.393754686E0,-2.334346622E-2,-3.106476665E-1,9.448717117E0
3.395753228E0,6.284779310E-2,-2.771288455E-1,1.025316906E1
3.397751769E0,-5.207388848E-2,3.693056107E-1,8.759186745E0
3.399750259E0,-8.080431074E-2,3.214215636E-1,8.510190010E0
3.401748644E0,1.017535757E-2,-2.531868219E-1,1.001853657E1
3.403747030E0,2.932897024E-2,-3.776853085E-1,1.109113979E1
3.405745415E0,1.586158574E-1,2.304419130E-1,9.937133789E0
3.407743800E0,1.059434265E-1,4.650736749E-1,9.094375610E0
3.409742186E0,3.890577704E-2,5.805939063E-2,9.601945877E0
3.411740519E0,3.405751884E-1,-2.436100245E-1,1.073200893E1
3.413738800E0,3.405751884E-1,7.721300423E-2,1.024838066E1
3.415737082E0,1.203086376E-1,3.501519859E-1,9.180566788E0
3.417735363E0,4.369417951E-2,3.501519859E-1,9.113529205E0
3.419733540E0,3.411737457E-2,9.157821536E-2,9.975440979E0
3.421731717E0,4.848258570E-2,-8.978256024E-3,1.099058247E1
3.423729894E0,1.346738487E-1,2.448071241E-1,9.348160744E0
3.425728071E0,1.825578809E-1,2.352303118E-1,9.501389503E0
3.427726248E0,-3.770867735E-2,2.454056777E-2,9.448717117E0
3.429724425E0,-5.207388848E-2,-9.516951442E-2,9.970652580E0
3.431722603E0,-1.334767491E-1,1.107318252E-1,9.453505516E0
3.433720780E0,-1.047463268E-1,9.636662155E-2,9.731232643E0
3.435718957E0,-1.095347255E-1,-8.559270948E-2,9.625887871E0
3.437717134E0,-1.430535465E-1,-1.191115379E-1,9.616311073E0
3.439715311E0,-2.100912035E-1,2.454056777E-2,9.510966301E0
3.441713540E0,-9.038111567E-2,1.975216344E-2,1.001374817E1
3.443711821E0,-1.047463268E-1,-5.207388848E-2,1.048780060E1
3.445710155E0,-1.574187577E-1,-2.334346622E-2,1.020049667E1
3.447708540E0,-7.601590455E-2,6.278793812E-1,9.348160744E0
3.449706978E0,-1.430535465E-1,7.811083198E-1,8.256404877E0
3.451705467E0,-9.038111567E-2,2.400187254E-1,9.448717117E0
3.453704009E0,-1.622071713E-1,-1.143231317E-1,1.017176628E1
3.455702550E0,-4.728548229E-2,-2.436100245E-1,1.007599831E1
3.457701092E0,2.454056777E-2,-2.579752207E-1,1.103846741E1
3.459699634E0,-9.038111567E-2,3.453635871E-1,9.252392769E0
3.461698175E0,-2.388216257E-1,8.912416101E-1,7.533355713E0
3.463696717E0,-7.601590455E-2,-1.382651478E-1,9.467870712E0
3.465695259E0,1.969230920E-1,-9.427168965E-1,1.161307526E1
3.467693800E0,1.538274586E-1,-6.937199235E-1,1.186207199E1
3.469692342E0,3.890577704E-2,5.560533404E-1,8.754398346E0
3.471690884E0,1.442506462E-1,8.672995567E-1,7.724891663E0
3.473689425E0,2.783259451E-1,2.160767019E-1,9.156624794E0
3.475687967E0,2.831143439E-1,-3.345896900E-1,1.072722054E1
3.477686509E0,3.501519859E-1,-2.244564146E-1,1.042555141E1
3.479685050E0,3.980360329E-1,1.203086376E-1,9.683348656E0
3.481683592E0,4.842272997E-1,3.309983909E-1,9.539696693E0
3.483682134E0,4.650736749E-1,4.746504724E-1,9.333795547E0
3.485680675E0,4.124012291E-1,7.242459804E-2,1.040160942E1
3.487679217E0,3.836708367E-1,5.327098817E-2,1.053089619E1
3.489677759E0,3.357867897E-1,4.602852762E-1,9.305065155E0
3.491675988E0,4.698620737E-1,7.428010702E-1,8.840589523E0
3.493674217E0,4.554968774E-1,4.602852762E-1,9.070432663E0
3.495672446E0,4.076128304E-1,-9.038111567E-2,1.060751057E1
3.497670675E0,2.735375464E-1,1.634042710E-1,1.058356857E1
3.499668905E0,1.777694821E-1,5.368997455E-1,9.400833130E0
3.501667134E0,6.763619930E-2,4.171896577E-1,9.137471199E0
3.503665363E0,1.975216344E-2,1.825578809E-1,9.525331497E0
3.505663592E0,8.678980917E-2,-1.334767491E-1,1.018134308E1
3.507661821E0,3.890577704E-2,1.873462796E-1,9.922768593E0
3.509660050E0,9.636662155E-2,6.757634282E-1,8.888473511E0
3.511658280E0,1.586158574E-1,5.033808947E-1,8.821435928E0
3.513656509E0,1.969230920E-1,-1.478419602E-1,1.098579407E1
3.515654738E0,1.155202314E-1,-3.250128925E-1,1.130182934E1
3.517652967E0,2.932897024E-2,2.160767019E-1,9.314641953E0
3.519651248E0,1.155202314E-1,2.974795699E-1,8.960299492E0
3.521649582E0,9.636662155E-2,1.250970364E-1,8.960299492E0
3.523647967E0,1.203086376E-1,8.678980917E-2,9.611522675E0
3.525646405E0,7.721300423E-2,-1.526303589E-1,9.850942612E0
3.527644842E0,-4.189853091E-3,-2.579752207E-1,1.050216579E1
3.529643280E0,5.386953708E-3,3.836708367E-1,9.458293915E0
3.531641717E0,2.352303118E-1,4.171896577E-1,8.505401611E0
3.533640155E0,1.538274586E-1,4.848258570E-2,1.046864700E1
3.535638592E0,1.059434265E-1,1.490390599E-1,9.597157478E0
3.537637030E0,1.250970364E-1,1.394622475E-1,9.975440979E0
3.539635467E0,2.017114908E-1,3.405751884E-1,9.884461403E0
3.541633905E0,8.678980917E-2,5.752069354E-1,9.151836395E0
3.543632342E0,1.921346933E-1,1.729810685E-1,1.009036350E1
3.545630780E0,1.586158574E-1,5.327098817E-2,1.101452446E1
3.547629217E0,7.721300423E-2,6.661866307E-1,9.807847023E0
3.549627655E0,9.636662155E-2,6.661866307E-1,8.917203903E0
3.551625884E0,1.059434265E-1,5.321113467E-1,9.783905029E0
3.553624113E0,2.495955229E-1,4.459200799E-1,9.846154213E0
3.555622290E0,1.394622475E-1,2.687491477E-1,9.932345390E0
3.557620467E0,2.932897024E-2,2.783259451E-1,9.692925453E0
3.559618644E0,1.825578809E-1,3.884592354E-1,9.309853554E0
3.561616821E0,1.825578809E-1,4.848258570E-2,1.018134308E1
3.563614998E0,1.394622475E-1,-1.376665942E-2,1.050216579E1
3.565613175E0,1.681926697E-1,5.704185367E-1,9.530119896E0
3.567611405E0,1.298854351E-1,7.140706778E-1,8.222886086E0
3.569609686E0,2.735375464E-1,4.219780564E-1,9.348160744E0
3.571608019E0,1.873462796E-1,1.490390599E-1,1.041597462E1
3.573606405E0,1.298854351E-1,2.591723204E-1,1.031541824E1
3.575604842E0,5.386953708E-3,1.729810685E-1,9.707290649E0
3.577603332E0,9.157821536E-2,4.459200799E-1,9.898826599E0
3.579601873E0,1.490390599E-1,-1.334767491E-1,9.683348656E0
3.581600467E0,2.926911712E-1,-1.613093376E0,1.314057636E1
3.583599113E0,9.157821536E-2,5.327098817E-2,7.624335289E0
3.585597759E0,5.805939063E-2,8.816647530E-1,8.040925980E0
3.587596405E0,3.890577704E-2,9.870096445E-1,8.505401611E0
3.589595050E0,-1.478419602E-1,1.537676096E0,5.225345135E0
3.591593696E0,2.932897024E-2,5.177460909E-1,1.036330223E1
3.593592290E0,-8.978256024E-3,-1.230021119E0,1.506551456E1
3.595590623E0,-8.978256024E-3,-7.416039705E-1,1.061708736E1
3.597588957E0,1.634042710E-1,2.017114908E-1,1.100973606E1
3.599587290E0,5.805939063E-2,1.111508131E0,8.653841972E0
3.601585623E0,7.242459804E-2,9.822212458E-1,7.648277283E0
3.603583957E0,1.250970364E-1,1.777694821E-1,9.597157478E0
3.605582290E0,1.496376097E-2,-1.574187577E-1,1.059314537E1
3.607580675E0,-2.334346622E-2,-4.399345517E-1,1.015740108E1
3.609579113E0,-4.189853091E-3,-3.537433147E-1,1.034414864E1
3.611577603E0,-5.207388848E-2,2.454056777E-2,9.989806175E0
3.613576144E0,-1.478419602E-1,2.639607489E-1,8.912415504E0
3.615574738E0,6.284779310E-2,2.687491477E-1,8.869319916E0
3.617573384E0,1.975216344E-2,2.160767019E-1,9.736021042E0
3.619572030E0,-7.601590455E-2,2.064998895E-1,9.506177902E0
3.621570675E0,-2.813187055E-2,-8.080431074E-2,1.038724422E1
3.623569321E0,-5.686229095E-2,-6.165069342E-2,1.050216579E1
3.625567967E0,-6.643909961E-2,3.884592354E-1,9.036913872E0
3.627566613E0,1.017535757E-2,3.022679687E-1,8.783128738E0
3.629565259E0,1.107318252E-1,-6.165069342E-2,1.058356857E1
3.631563905E0,5.985504249E-4,6.284779310E-2,1.059793377E1
3.633562550E0,-2.334346622E-2,1.490390599E-1,9.372102737E0
3.635561196E0,5.805939063E-2,1.681926697E-1,9.578003883E0
3.637559842E0,-1.855506375E-2,4.794389009E-1,9.247604370E0
3.639558175E0,-2.813187055E-2,4.985924959E-1,9.410409927E0
3.641556509E0,-1.191115379E-1,2.208651006E-1,1.025316906E1
3.643554842E0,-4.249707982E-2,1.496376097E-2,1.021007347E1
3.645553175E0,-8.080431074E-2,3.118447661E-1,1.005684471E1
3.647551509E0,-4.249707982E-2,6.135141850E-1,9.697713852E0
3.649549842E0,-3.770867735E-2,6.613982320E-1,9.266757965E0
3.651548175E0,-1.143231317E-1,3.693056107E-1,9.376891136E0
3.653546509E0,-5.207388848E-2,1.681926697E-1,9.927556992E0
3.655544842E0,-6.643909961E-2,3.645172119E-1,9.759963036E0
3.657543175E0,-3.770867735E-2,3.693056107E-1,9.463082314E0
3.659541509E0,5.985504249E-4,1.490390599E-1,9.645041466E0
3.661539842E0,-4.189853091E-3,1.490390599E-1,1.011430550E1
3.663538228E0,7.242459804E-2,1.107318252E-1,1.013345909E1
3.665536665E0,6.284779310E-2,-1.430535465E-1,1.049737740E1
3.667535155E0,9.157821536E-2,-8.559270948E-2,1.051653099E1
3.669533696E0,9.636662155E-2,1.298854351E-1,9.712079048E0
3.671532290E0,1.634042710E-1,2.208651006E-1,9.319430351E0
3.673530884E0,2.208651006E-1,1.729810685E-1,9.807847023E0
3.675529478E0,1.394622475E-1,1.394622475E-1,9.980229378E0
3.677528071E0,6.763619930E-2,1.442506462E-1,1.001374817E1
3.679526665E0,6.284779310E-2,4.171896577E-1,9.357737541E0
3.681525259E0,5.327098817E-2,3.645172119E-1,9.439140320E0
3.683523800E0,-1.376665942E-2,2.495955229E-1,9.472659111E0
3.685522082E0,-4.728548229E-2,4.369417951E-2,1.025795746E1
3.687520363E0,-1.382651478E-1,5.177460909E-1,9.860519409E0
3.689518644E0,-1.286883354E-1,7.763199210E-1,9.180566788E0
3.691516925E0,-3.770867735E-2,4.794389009E-1,9.683348656E0
3.693515207E0,2.932897024E-2,2.256535143E-1,1.014303589E1
3.695513488E0,8.200141042E-2,5.416881442E-1,9.985017776E0
3.697511769E0,1.681926697E-1,6.901286244E-1,9.520543098E0
3.699510050E0,2.448071241E-1,4.890156984E-1,9.673771858E0
3.701508332E0,2.208651006E-1,5.129576921E-1,9.463082314E0
3.703506613E0,3.166331649E-1,5.799953341E-1,9.295488358E0
3.705504894E0,2.974795699E-1,4.507084787E-1,9.582792282E0
3.707503228E0,2.926911712E-1,4.267664552E-1,9.683348656E0
3.709501613E0,3.214215636E-1,2.543839216E-1,9.874884605E0
3.711500050E0,3.214215636E-1,2.208651006E-1,1.007120991E1
3.713498540E0,2.926911712E-1,2.208651006E-1,9.740809441E0
3.715497082E0,2.926911712E-1,2.352303118E-1,9.616311073E0
3.717495675E0,1.011550203E-1,1.017535757E-2,9.874884605E0
3.719494269E0,4.369417951E-2,1.011550203E-1,9.941922188E0
3.721492863E0,8.678980917E-2,2.112883031E-1,9.740809441E0
3.723491457E0,1.496376097E-2,3.884592354E-1,9.214085579E0
3.725490050E0,5.386953708E-3,2.639607489E-1,9.247604370E0
3.727488332E0,-4.189853091E-3,5.805939063E-2,9.697713852E0
3.729486457E0,4.369417951E-2,-3.292027488E-2,1.009036350E1
3.731484582E0,1.298854351E-1,3.262099922E-1,9.357737541E0
3.733482707E0,3.890577704E-2,5.512649417E-1,8.601169586E0
3.735480832E0,1.442506462E-1,-3.393780887E-1,1.080862331E1
3.737478957E0,2.112883031E-1,-1.622071713E-1,1.039682102E1
3.739477082E0,1.394622475E-1,4.698620737E-1,9.376891136E0
3.741475207E0,3.166331649E-1,3.597288132E-1,9.649829865E0
3.743473384E0,2.926911712E-1,3.549404144E-1,9.860519409E0
3.745471613E0,3.214215636E-1,4.602852762E-1,9.549273491E0
3.747469894E0,3.118447661E-1,4.267664552E-1,9.247604370E0
3.749468228E0,3.166331649E-1,1.107318252E-1,1.012867069E1
3.751466613E0,2.256535143E-1,4.124012291E-1,9.870096207E0
3.753465050E0,2.352303118E-1,5.033808947E-1,9.601945877E0
3.755463540E0,1.203086376E-1,3.166331649E-1,9.736021042E0
3.757462082E0,8.678980917E-2,1.298854351E-1,1.010951710E1
3.759460623E0,1.107318252E-1,2.974795699E-1,9.908403397E0
3.761459217E0,6.763619930E-2,3.357867897E-1,9.793481827E0
3.763457811E0,1.203086376E-1,3.405751884E-1,9.755174637E0
3.765456405E0,5.805939063E-2,3.788824081E-1,9.664195061E0
3.767454998E0,2.454056777E-2,3.645172119E-1,9.692925453E0
3.769453592E0,7.242459804E-2,3.645172119E-1,9.803058624E0
3.771452186E0,4.848258570E-2,2.687491477E-1,9.970652580E0
3.773450780E0,5.386953708E-3,7.284358740E-1,9.070432663E0
3.775449165E0,-4.189853091E-3,5.752069354E-1,9.041702271E0
3.777447550E0,8.200141042E-2,8.200141042E-2,9.884461403E0
3.779445832E0,5.386953708E-3,1.250970364E-1,9.841365814E0
3.781444113E0,2.932897024E-2,2.400187254E-1,9.372102737E0
3.783442394E0,8.678980917E-2,5.985504249E-4,1.007120991E1
3.785440675E0,6.284779310E-2,1.729810685E-1,9.477447510E0
3.787438957E0,4.848258570E-2,2.831143439E-1,9.290699959E0
3.789437238E0,1.107318252E-1,1.059434265E-1,9.783905029E0
3.791435519E0,1.203086376E-1,-1.191115379E-1,1.024838066E1
3.793433800E0,2.454056777E-2,5.327098817E-2,9.956287384E0
3.795432082E0,-1.191115379E-1,1.825578809E-1,9.491812706E0
3.797430363E0,5.805939063E-2,-1.047463268E-1,9.956287384E0
3.799428644E0,3.890577704E-2,-5.207388848E-2,1.012867069E1
3.801426925E0,5.805939063E-2,3.357867897E-1,9.463082314E0
3.803425207E0,9.636662155E-2,3.597288132E-1,9.252392769E0
3.805423488E0,2.304419130E-1,1.634042710E-1,9.985017776E0
3.807421769E0,2.926911712E-1,1.921346933E-1,9.980229378E0
3.809420050E0,3.453635871E-1,2.591723204E-1,9.850942612E0
3.811418332E0,2.735375464E-1,3.549404144E-1,9.549273491E0
3.813416613E0,3.262099922E-1,3.501519859E-1,9.573215485E0
3.815414894E0,1.490390599E-1,3.022679687E-1,9.329007149E0
3.817413228E0,1.538274586E-1,-3.292027488E-2,9.946710587E0
3.819411561E0,2.064998895E-1,5.386953708E-3,1.004247856E1
3.821409946E0,2.064998895E-1,2.064998895E-1,9.745597839E0
3.823408384E0,2.112883031E-1,4.411316514E-1,9.223662376E0
3.825406873E0,1.298854351E-1,1.634042710E-1,9.836577415E0
3.827405415E0,1.011550203E-1,-5.686229095E-2,1.063145256E1
3.829403957E0,1.346738487E-1,3.166331649E-1,9.927556992E0
3.831402498E0,7.721300423E-2,4.219780564E-1,9.534908295E0
3.833401040E0,-2.334346622E-2,4.363432527E-1,9.147047997E0
3.835399582E0,-8.978256024E-3,1.011550203E-1,9.726444244E0
3.837397967E0,1.975216344E-2,2.112883031E-1,9.903614998E0
3.839396300E0,-5.207388848E-2,4.938040972E-1,9.261969566E0
3.841394634E0,-1.286883354E-1,4.650736749E-1,9.214085579E0
3.843392967E0,-1.813607812E-1,4.369417951E-2,9.836577415E0
3.845391248E0,5.327098817E-2,-1.191115379E-1,1.055004978E1
3.847389530E0,-1.376665942E-2,1.496376097E-2,1.013824749E1
3.849387811E0,-7.122749835E-2,3.214215636E-1,9.309853554E0
3.851386092E0,-8.080431074E-2,4.794389009E-1,8.888473511E0
3.853384373E0,-8.559270948E-2,2.448071241E-1,9.544485092E0
3.855382655E0,1.975216344E-2,-2.334346622E-2,1.015740108E1
3.857380936E0,-1.376665942E-2,5.327098817E-2,1.014782429E1
3.859379217E0,-4.249707982E-2,2.448071241E-1,9.635464668E0
3.861377498E0,-7.122749835E-2,9.157821536E-2,9.841365814E0
3.863375780E0,-4.189853091E-3,1.729810685E-1,9.726444244E0
3.865374061E0,2.932897024E-2,2.256535143E-1,9.635464668E0
3.867372394E0,3.411737457E-2,9.636662155E-2,9.367314339E0
3.869370780E0,6.284779310E-2,-1.376665942E-2,1.006642151E1
3.871369217E0,1.250970364E-1,1.394622475E-1,9.664195061E0
3.873367655E0,7.721300423E-2,2.932897024E-2,9.539696693E0
3.875366092E0,1.011550203E-1,-5.207388848E-2,9.908403397E0
3.877364530E0,1.394622475E-1,-9.038111567E-2,9.874884605E0
3.879362967E0,9.636662155E-2,-2.334346622E-2,9.673771858E0
3.881361405E0,1.777694821E-1,7.242459804E-2,9.616311073E0
3.883359842E0,2.160767019E-1,2.160767019E-1,9.276334763E0
3.885358280E0,2.256535143E-1,-9.038111567E-2,1.033457184E1
3.887356717E0,3.309983909E-1,2.591723204E-1,9.961075783E0
3.889355207E0,3.022679687E-1,3.740940094E-1,9.372102737E0
3.891353696E0,3.166331649E-1,1.394622475E-1,9.865307808E0
3.893352186E0,1.921346933E-1,2.064998895E-1,9.850942612E0
3.895350675E0,1.921346933E-1,2.160767019E-1,9.989806175E0
3.897349165E0,1.921346933E-1,3.022679687E-1,9.822212219E0
3.899347655E0,1.586158574E-1,3.501519859E-1,9.453505516E0
3.901346144E0,1.634042710E-1,1.107318252E-1,9.779116631E0
3.903344634E0,2.639607489E-1,1.011550203E-1,9.783905029E0
3.905342967E0,1.250970364E-1,2.352303118E-1,9.525331497E0
3.907341300E0,1.825578809E-1,1.873462796E-1,9.755174637E0
3.909339634E0,2.735375464E-1,-8.978256024E-3,9.975440979E0
3.911337967E0,2.495955229E-1,-1.765723825E-1,1.014303589E1
3.913336300E0,1.394622475E-1,3.890577704E-2,9.554061890E0
3.915334634E0,1.873462796E-1,3.645172119E-1,9.003395081E0
3.917332967E0,1.538274586E-1,2.926911712E-1,9.190143585E0
3.919331300E0,1.059434265E-1,-2.334346622E-2,9.611522675E0
3.921329634E0,5.327098817E-2,-1.478419602E-1,1.014782429E1
3.923327967E0,7.242459804E-2,5.805939063E-2,9.975440979E0
3.925326300E0,1.059434265E-1,-4.189853091E-3,9.726444244E0
3.927324634E0,1.250970364E-1,-2.292448133E-1,9.759963036E0
3.929322967E0,1.921346933E-1,-1.238999367E-1,1.022922707E1
3.931321353E0,2.256535143E-1,1.969230920E-1,9.362525940E0
3.933319790E0,2.783259451E-1,1.975216344E-2,9.592369080E0
3.935318280E0,3.262099922E-1,-1.526303589E-1,9.683348656E0
3.937316821E0,3.549404144E-1,-1.430535465E-1,9.941922188E0
3.939315415E0,2.926911712E-1,7.242459804E-2,9.764751434E0
3.941314061E0,2.639607489E-1,2.932897024E-2,9.937133789E0
3.943312707E0,2.974795699E-1,1.017535757E-2,9.922768593E0
3.945311405E0,2.591723204E-1,2.454056777E-2,9.846154213E0
3.947310103E0,1.873462796E-1,1.634042710E-1,9.759963036E0
3.949308800E0,5.327098817E-2,1.011550203E-1,9.601945877E0
3.951307446E0,5.805939063E-2,3.411737457E-2,9.688137054E0
3.953305623E0,1.011550203E-1,-1.430535465E-1,1.009994030E1
3.955303800E0,-4.189853091E-3,-2.148796022E-1,1.009994030E1
3.957301978E0,-9.516951442E-2,-9.038111567E-2,9.429563522E0
3.959300155E0,-4.728548229E-2,-6.165069342E-2,9.132682800E0
3.961298332E0,-5.686229095E-2,-1.478419602E-1,9.338583946E0
3.963296509E0,1.496376097E-2,-2.531868219E-1,9.712079048E0
3.965294686E0,1.975216344E-2,-1.047463268E-1,9.783905029E0
3.967292863E0,3.890577704E-2,-1.909375787E-1,9.908403397E0
3.969291040E0,2.454056777E-2,4.848258570E-2,9.678560257E0
3.971289269E0,-3.292027488E-2,1.442506462E-1,9.367314339E0
3.973287550E0,6.284779310E-2,-2.334346622E-2,9.726444244E0
3.975285884E0,8.678980917E-2,-1.095347255E-1,1.022922707E1
3.977284321E0,1.394622475E-1,-1.430535465E-1,1.055004978E1
3.979282811E0,2.160767019E-1,1.975216344E-2,9.937133789E0
3.981281353E0,1.873462796E-1,2.208651006E-1,9.238027573E0
3.983279946E0,2.160767019E-1,2.352303118E-1,9.103952408E0
3.985278592E0,2.112883031E-1,9.636662155E-2,9.424775124E0
3.987277290E0,1.729810685E-1,-8.080431074E-2,9.755174637E0
3.989276040E0,2.112883031E-1,-8.080431074E-2,1.006642151E1
3.991274790E0,2.160767019E-1,1.107318252E-1,9.846154213E0
3.993273540E0,1.298854351E-1,-8.559270948E-2,9.898826599E0
3.995272290E0,4.848258570E-2,-1.813607812E-1,1.025795746E1
3.997271040E0,1.107318252E-1,8.678980917E-2,9.827000618E0
3.999269738E0,2.932897024E-2,1.538274586E-1,9.482235909E0
4.001268123E0,5.805939063E-2,-8.978256024E-3,9.467870712E0
4.003266509E0,1.017535757E-2,-1.478419602E-1,9.822212219E0
4.005264738E0,-2.813187055E-2,-1.334767491E-1,9.956287384E0
4.007262967E0,1.017535757E-2,-1.143231317E-1,9.975440979E0
4.009261196E0,8.200141042E-2,-1.478419602E-1,9.716867447E0
4.011259425E0,1.107318252E-1,-9.139865041E-1,1.064102936E1
4.013257655E0,3.890577704E-2,2.454056777E-2,1.012388229E1
4.015255884E0,-9.038111567E-2,7.380126715E-1,8.175002098E0
4.017254113E0,-2.196680009E-1,-6.165069342E-2,8.596381187E0
4.019252342E0,-1.430535465E-1,-3.345896900E-1,1.039682102E1
4.021250571E0,-9.995792061E-2,5.129576921E-1,8.572439194E0
4.023248800E0,-1.143231317E-1,6.284779310E-2,9.520543098E0
4.025247030E0,-1.478419602E-1,-5.117605925E-1,1.052131939E1
4.027245259E0,-1.622071713E-1,-4.159925580E-1,1.047343540E1
4.029243488E0,-1.957259923E-1,-9.516951442E-2,1.007599831E1
4.031241717E0,-1.855506375E-2,-1.238999367E-1,9.683348656E0
4.033239946E0,-1.191115379E-1,-1.813607812E-1,9.482235909E0
4.035238175E0,3.411737457E-2,-3.292027488E-2,9.673771858E0
4.037236405E0,1.496376097E-2,-1.376665942E-2,9.601945877E0
4.039234634E0,6.763619930E-2,1.203086376E-1,9.266757965E0
4.041232863E0,5.985504249E-4,2.454056777E-2,9.319430351E0
4.043231092E0,1.017535757E-2,-4.249707982E-2,9.716867447E0
4.045229321E0,6.284779310E-2,-7.601590455E-2,9.903614998E0
4.047227550E0,3.411737457E-2,-1.622071713E-1,9.994594574E0
4.049225780E0,2.932897024E-2,-1.861491799E-1,1.000895977E1
4.051224061E0,2.932897024E-2,-1.855506375E-2,9.846154213E0
4.053222342E0,5.327098817E-2,1.107318252E-1,9.783905029E0
4.055220623E0,4.848258570E-2,6.284779310E-2,9.831789017E0
4.057218905E0,-2.813187055E-2,-8.978256024E-3,9.664195061E0
4.059217186E0,-2.813187055E-2,1.203086376E-1,9.362525940E0
4.061215467E0,2.454056777E-2,-6.643909961E-2,9.611522675E0
4.063213748E0,1.155202314E-1,-3.154360652E-1,1.029147625E1
4.065212030E0,1.969230920E-1,-1.526303589E-1,1.002332497E1
4.067210363E0,1.059434265E-1,1.017535757E-2,9.534908295E0
4.069208748E0,7.242459804E-2,-1.478419602E-1,9.434351921E0
4.071207134E0,9.157821536E-2,-1.622071713E-1,9.702502251E0
4.073205519E0,5.805939063E-2,-3.292027488E-2,9.487024307E0
4.075203905E0,1.017535757E-2,-1.238999367E-1,9.563638687E0
4.077202290E0,-8.559270948E-2,-2.388216257E-1,9.601945877E0
4.079200675E0,8.678980917E-2,-1.717839688E-1,9.903614998E0
4.081199061E0,-1.376665942E-2,6.763619930E-2,9.937133789E0
4.083197446E0,-1.855506375E-2,1.017535757E-2,9.726444244E0
4.085195832E0,3.890577704E-2,-1.143231317E-1,1.002332497E1
4.087194217E0,1.496376097E-2,-3.770867735E-2,9.894038200E0
