"Time (s)","Acceleration x (m/s^2)","Acceleration y (m/s^2)","Acceleration z (m/s^2)"
1.876609600E-2,-1.238999367E-1,1.586158574E-1,9.755174637E0
2.076427300E-2,-1.334767491E-1,1.538274586E-1,9.736021042E0
2.276239800E-2,-1.430535465E-1,1.777694821E-1,9.702502251E0
2.476052300E-2,-1.574187577E-1,1.681926697E-1,9.788693428E0
2.675864800E-2,-1.717839688E-1,1.681926697E-1,9.755174637E0
2.875677300E-2,-1.861491799E-1,1.873462796E-1,9.779116631E0
3.075489800E-2,-3.345896900E-1,2.543839216E-1,9.616311073E0
3.275302300E-2,-3.872621357E-1,2.591723204E-1,9.597157478E0
3.475114800E-2,-3.298012912E-1,2.543839216E-1,9.597157478E0
3.674927300E-2,-2.723404467E-1,2.400187254E-1,9.750386238E0
3.874739800E-2,-2.053027898E-1,2.591723204E-1,9.764751434E0
4.074552300E-2,-2.005143911E-1,2.639607489E-1,9.870096207E0
4.274370000E-2,-3.106476665E-1,2.687491477E-1,9.803058624E0
4.474192900E-2,-5.021837950E-1,2.304419130E-1,9.827000618E0
4.674015800E-2,-5.835866928E-1,1.921346933E-1,9.917980194E0
4.873838700E-2,-1.286883354E-1,1.107318252E-1,9.745597839E0
5.073661600E-2,-2.334346622E-2,1.729810685E-1,9.673771858E0
5.273484600E-2,-1.622071713E-1,1.394622475E-1,9.654618263E0
5.473307500E-2,-9.995792061E-2,1.059434265E-1,9.769539833E0
5.673130400E-2,-1.143231317E-1,1.634042710E-1,9.827000618E0
5.872953300E-2,-1.478419602E-1,1.490390599E-1,9.769539833E0
6.072776200E-2,-1.622071713E-1,1.825578809E-1,9.745597839E0
6.272604300E-2,-2.292448133E-1,2.495955229E-1,9.803058624E0
6.472432500E-2,-2.819172442E-1,2.974795699E-1,9.894038200E0
6.672260600E-2,-2.579752207E-1,2.926911712E-1,9.846154213E0
6.872093900E-2,-2.053027898E-1,1.921346933E-1,9.788693428E0
7.071927300E-2,-1.095347255E-1,5.805939063E-2,9.688137054E0
7.271760600E-2,1.011550203E-1,-4.189853091E-3,9.678560257E0
7.471593900E-2,2.400187254E-1,-1.047463268E-1,9.731232643E0
7.671427300E-2,3.166331649E-1,-1.478419602E-1,9.702502251E0
7.871260600E-2,2.639607489E-1,-7.601590455E-2,9.630676270E0
8.071093900E-2,1.729810685E-1,6.284779310E-2,9.635464668E0
8.270927300E-2,4.848258570E-2,2.017114908E-1,9.716867447E0
8.470750200E-2,-8.559270948E-2,2.926911712E-1,9.759963036E0
8.670557500E-2,-1.669955701E-1,3.645172119E-1,9.836577415E0
8.870364800E-2,-2.196680009E-1,3.884592354E-1,9.769539833E0
9.070172100E-2,-3.441664875E-1,7.332242727E-1,9.831789017E0
9.269979300E-2,-3.106476665E-1,1.006163239E0,9.755174637E0
9.469786600E-2,-2.005143911E-1,1.173757434E0,9.673771858E0
9.669593900E-2,-3.106476665E-1,1.781884670E0,9.625887871E0
9.869401200E-2,-3.345896900E-1,2.073977232E0,9.716867447E0
1.006920850E-1,-2.531868219E-1,2.179322004E0,9.865307808E0
1.026901580E-1,-1.765723825E-1,2.212841034E0,9.822212219E0
1.046882310E-1,-9.038111567E-2,2.394800186E0,9.721655846E0
1.066863560E-1,-4.249707982E-2,2.476203203E0,9.597157478E0
1.086845330E-1,5.805939063E-2,2.480991602E0,9.712079048E0
1.106827620E-1,1.490390599E-1,2.552817583E0,9.836577415E0
1.126809910E-1,2.256535143E-1,2.610278368E0,9.759963036E0
1.146792210E-1,2.591723204E-1,2.605489969E0,9.683348656E0
1.166774500E-1,3.070563674E-1,2.605489969E0,9.721655846E0
1.186756790E-1,3.645172119E-1,2.610278368E0,9.750386238E0
1.206739080E-1,3.788824081E-1,2.457049608E0,9.707290649E0
1.226721370E-1,3.884592354E-1,2.409165382E0,9.664195061E0
1.246701060E-1,3.932476342E-1,2.337339401E0,9.726444244E0
1.266679180E-1,4.171896577E-1,2.169745207E0,9.803058624E0
1.286657310E-1,3.932476342E-1,2.141014814E0,9.740809441E0
1.306635430E-1,3.788824081E-1,2.011728048E0,9.520543098E0
1.326613560E-1,3.357867897E-1,1.824980259E0,9.769539833E0
1.346591680E-1,2.974795699E-1,1.619078875E0,9.793481827E0
1.366569810E-1,2.879027426E-1,1.465849996E0,1.000417137E1
1.386548460E-1,2.591723204E-1,1.389235497E0,9.578003883E0
1.406527620E-1,2.256535143E-1,1.188122630E0,9.721655846E0
1.426506790E-1,1.634042710E-1,9.534908533E-1,9.879673004E0
1.446485960E-1,1.634042710E-1,8.337807655E-1,1.000417137E1
1.466465120E-1,9.157821536E-2,7.954735160E-1,9.314641953E0
1.486444290E-1,6.284779310E-2,7.380126715E-1,9.683348656E0
1.506423460E-1,5.985504249E-4,6.326677799E-1,9.649829865E0
1.526403140E-1,-4.728548229E-2,4.267664552E-1,1.013824749E1
1.546382830E-1,-6.165069342E-2,4.698620737E-1,9.874884605E0
1.566362520E-1,-8.080431074E-2,5.129576921E-1,9.544485092E0
1.586342210E-1,-9.995792061E-2,5.129576921E-1,9.510966301E0
1.606321890E-1,-6.165069342E-2,5.704185367E-1,9.716867447E0
1.626301580E-1,-7.122749835E-2,5.895721912E-1,9.635464668E0
1.646281270E-1,-3.770867735E-2,6.422445774E-1,9.750386238E0
1.666260960E-1,-2.813187055E-2,5.847837925E-1,1.009994030E1
1.686240640E-1,-1.376665942E-2,6.518214345E-1,1.018613148E1
1.706220330E-1,-1.855506375E-2,8.433575630E-1,9.467870712E0
1.726200020E-1,-1.376665942E-2,8.720879555E-1,9.597157478E0
1.746179710E-1,-1.376665942E-2,9.103952050E-1,9.597157478E0
1.766159390E-1,1.017535757E-2,9.247604012E-1,9.941922188E0
1.786139080E-1,6.763619930E-2,9.678560495E-1,9.774328232E0
1.806119290E-1,8.200141042E-2,1.068412542E0,9.582792282E0
1.826100020E-1,1.107318252E-1,1.092354536E0,9.625887871E0
1.846080750E-1,1.394622475E-1,9.917980433E-1,9.870096207E0
1.866061480E-1,1.586158574E-1,1.087566137E0,9.951498985E0
1.886042210E-1,1.394622475E-1,1.145026922E0,9.807847023E0
1.906022930E-1,1.490390599E-1,1.245583415E0,9.611522675E0
1.926003660E-1,1.203086376E-1,1.168969035E0,9.645041466E0
1.945984390E-1,1.203086376E-1,1.231218219E0,9.539696693E0
1.965965120E-1,1.394622475E-1,1.264737010E0,9.554061890E0
1.985945850E-1,1.011550203E-1,1.130661726E0,9.889249802E0
2.005926580E-1,8.678980917E-2,1.068412542E0,1.002811337E1
2.025907310E-1,5.805939063E-2,1.154603720E0,9.745597839E0
2.045888040E-1,2.932897024E-2,1.092354536E0,9.965864182E0
2.065868770E-1,5.386953708E-3,1.054047346E0,9.348160744E0
2.085849500E-1,-4.249707982E-2,9.726444483E-1,9.889249802E0
2.105830230E-1,-9.038111567E-2,7.715315223E-1,9.659406662E0
2.125810960E-1,-9.516951442E-2,7.188590765E-1,9.831789017E0
2.145791680E-1,-1.047463268E-1,6.566098332E-1,1.000417137E1
2.165772410E-1,-1.143231317E-1,7.236474752E-1,9.496601105E0
2.185753140E-1,-1.765723825E-1,7.092822790E-1,9.827000618E0
2.205732310E-1,-2.148796022E-1,7.571662664E-1,9.606734276E0
2.225711480E-1,-2.148796022E-1,7.380126715E-1,9.295488358E0
2.245690640E-1,-2.531868219E-1,6.278793812E-1,1.014782429E1
2.265669810E-1,-2.388216257E-1,6.709750295E-1,9.568427086E0
2.285648980E-1,-2.867056429E-1,5.129576921E-1,1.037287903E1
2.305628140E-1,-2.723404467E-1,5.273229480E-1,9.558850288E0
2.325607310E-1,-2.340332121E-1,6.278793812E-1,9.482235909E0
2.345586480E-1,-2.340332121E-1,6.613982320E-1,9.544485092E0
2.365565640E-1,-2.196680009E-1,6.949170232E-1,9.884461403E0
2.385544810E-1,-2.627636492E-1,6.326677799E-1,1.008078671E1
2.405523980E-1,-1.574187577E-1,8.337807655E-1,9.386467934E0
2.425503140E-1,-1.430535465E-1,8.146271110E-1,9.664195061E0
2.445482310E-1,-1.143231317E-1,8.433575630E-1,9.692925453E0
2.465461480E-1,-1.047463268E-1,8.529343605E-1,9.726444244E0
2.485440640E-1,-7.601590455E-2,8.816647530E-1,1.035851383E1
2.505419810E-1,-1.855506375E-2,1.087566137E0,9.822212219E0
2.525398980E-1,-4.189853091E-3,1.202487826E0,9.702502251E0
2.545378140E-1,5.386953708E-3,1.149815321E0,9.520543098E0
2.565357310E-1,1.975216344E-2,1.063624144E0,9.381679535E0
2.585336480E-1,4.369417951E-2,1.101931334E0,1.000417137E1
2.605315640E-1,4.848258570E-2,1.183334231E0,9.879673004E0
2.625294810E-1,2.454056777E-2,1.188122630E0,9.697713852E0
2.645273980E-1,1.017535757E-2,1.231218219E0,9.736021042E0
2.665253140E-1,-4.189853091E-3,1.322197914E0,9.458293915E0
2.685231270E-1,-3.770867735E-2,1.317409515E0,9.970652580E0
2.705208350E-1,-8.559270948E-2,1.159392118E0,1.010951710E1
2.725185430E-1,-1.191115379E-1,1.226429820E0,9.850942612E0
2.745162520E-1,-1.191115379E-1,1.446696401E0,9.032125473E0
2.765139600E-1,-1.478419602E-1,1.384447098E0,9.199720383E0
2.785116680E-1,-2.005143911E-1,1.140238523E0,1.073679733E1
2.805093770E-1,-2.292448133E-1,1.207276225E0,9.980229378E0
2.825070850E-1,-2.340332121E-1,1.398812294E0,9.558850288E0
2.845047930E-1,-2.292448133E-1,1.465849996E0,9.089587212E0
2.865025020E-1,-2.627636492E-1,1.408389091E0,9.525331497E0
2.885002100E-1,-2.723404467E-1,1.279102206E0,1.044470501E1
2.904979180E-1,-2.436100245E-1,1.355716705E0,1.007120991E1
2.924956790E-1,-2.483984232E-1,1.427542806E0,9.257181168E0
2.944934910E-1,-3.202244639E-1,1.585560083E0,9.506177902E0
2.964913560E-1,-2.723404467E-1,1.346139908E0,1.019091988E1
2.984892210E-1,-2.723404467E-1,1.322197914E0,9.726444244E0
3.004870850E-1,-2.771288455E-1,1.441908002E0,9.807847023E0
3.024849500E-1,-2.388216257E-1,1.523310781E0,9.142259598E0
3.044828140E-1,-2.771288455E-1,1.456273198E0,1.012867069E1
3.064806790E-1,-2.196680009E-1,1.690904975E0,9.530119896E0
3.084785430E-1,-2.436100245E-1,1.561618090E0,9.726444244E0
3.104764080E-1,-2.483984232E-1,1.547252893E0,1.052131939E1
3.124742730E-1,-2.005143911E-1,1.671751380E0,9.554061890E0
3.144721370E-1,-2.100912035E-1,1.743577361E0,9.582792282E0
3.164700540E-1,-1.909375787E-1,1.887229443E0,9.276334763E0
3.184680230E-1,-1.909375787E-1,1.848922253E0,9.563638687E0
3.204660430E-1,-1.813607812E-1,1.710058570E0,1.030105305E1
3.224640640E-1,-1.430535465E-1,1.896806240E0,9.846154213E0
3.244620850E-1,-1.334767491E-1,1.877652645E0,9.917980194E0
3.264601060E-1,-1.238999367E-1,1.920748353E0,9.510966301E0
3.284581270E-1,-1.143231317E-1,2.040458441E0,9.415198326E0
3.304561480E-1,-1.047463268E-1,1.949478745E0,9.831789017E0
3.324541680E-1,-1.095347255E-1,1.920748353E0,9.903614998E0
3.344521890E-1,-1.191115379E-1,1.892017841E0,1.001853657E1
3.364502100E-1,-8.559270948E-2,1.954267144E0,9.807847023E0
3.384482310E-1,-9.516951442E-2,1.968632340E0,9.472659111E0
3.404462520E-1,-1.334767491E-1,1.939901948E0,9.889249802E0
3.424440640E-1,-1.478419602E-1,1.882441044E0,9.879673004E0
3.444418770E-1,-1.813607812E-1,1.844133854E0,9.281123161E0
3.464396890E-1,-2.100912035E-1,2.016516447E0,1.008557510E1
3.484375020E-1,-2.340332121E-1,2.016516447E0,9.635464668E0
3.504353140E-1,-2.723404467E-1,1.757942557E0,1.010951710E1
3.524331270E-1,-2.867056429E-1,1.944690347E0,9.592369080E0
3.544309390E-1,-2.867056429E-1,1.901594758E0,9.731232643E0
3.564287520E-1,-3.585317135E-1,1.868075848E0,9.616311073E0
3.584265640E-1,-3.393780887E-1,1.820191860E0,1.009994030E1
3.604243770E-1,-3.920505345E-1,1.944690347E0,9.539696693E0
3.624221890E-1,-4.207809567E-1,1.901594758E0,9.831789017E0
3.644200540E-1,-3.776853085E-1,1.906383157E0,9.400833130E0
3.664179710E-1,-4.064157307E-1,1.695693374E0,1.044949341E1
3.684159390E-1,-3.872621357E-1,1.915959954E0,8.950722694E0
3.704139600E-1,-3.872621357E-1,1.810615063E0,1.006642151E1
3.724120330E-1,-3.824737072E-1,1.820191860E0,9.180566788E0
3.744101060E-1,-3.489548862E-1,1.815403461E0,1.021486187E1
3.764081790E-1,-3.872621357E-1,1.638232470E0,9.879673004E0
3.784062520E-1,-3.441664875E-1,1.801038265E0,9.678560257E0
3.804043250E-1,-3.441664875E-1,1.796249866E0,9.764751434E0
3.824023980E-1,-3.202244639E-1,1.657386184E0,9.333795547E0
3.844004710E-1,-3.106476665E-1,1.676539779E0,9.712079048E0
3.863985430E-1,-2.962824702E-1,1.786673069E0,9.922768593E0
3.883966160E-1,-2.867056429E-1,1.599925280E0,1.009036350E1
3.903946890E-1,-3.298012912E-1,1.734000564E0,9.554061890E0
3.923927620E-1,-2.531868219E-1,1.868075848E0,9.831789017E0
3.943908350E-1,-2.867056429E-1,1.614290476E0,9.530119896E0
3.963889080E-1,-2.819172442E-1,1.690904975E0,1.000895977E1
3.983869810E-1,-2.867056429E-1,1.738788962E0,9.027337074E0
4.003850540E-1,-2.962824702E-1,2.021304846E0,9.908403397E0
4.023829710E-1,-2.627636492E-1,1.623867273E0,1.014782429E1
4.043807310E-1,-3.058592677E-1,1.580771685E0,1.018134308E1
4.063784910E-1,-3.250128925E-1,1.844133854E0,9.654618263E0
4.083762520E-1,-3.633201122E-1,1.719635367E0,9.419986725E0
4.103740120E-1,-3.776853085E-1,1.700481772E0,9.463082314E0
4.123717730E-1,-3.920505345E-1,1.829768658E0,9.611522675E0
4.143695330E-1,-3.776853085E-1,1.470638394E0,1.015740108E1
4.163673460E-1,-4.399345517E-1,1.513733983E0,9.635464668E0
4.183652100E-1,-3.728969097E-1,1.772307754E0,9.625887871E0
4.203631270E-1,-3.968389332E-1,1.571194887E0,9.683348656E0
4.223610960E-1,-4.112041295E-1,1.499368787E0,9.534908295E0
4.243591160E-1,-3.872621357E-1,1.365293503E0,1.022922707E1
4.263571370E-1,-4.064157307E-1,1.451484799E0,9.218873978E0
4.283551580E-1,-3.728969097E-1,1.475426793E0,1.026753426E1
4.303531790E-1,-3.728969097E-1,1.394023895E0,9.324218750E0
4.323512000E-1,-3.154360652E-1,1.499368787E0,9.908403397E0
4.343492210E-1,-3.345896900E-1,1.499368787E0,1.045428181E1
4.363472410E-1,-3.441664875E-1,1.508945584E0,8.730456352E0
4.383452620E-1,-3.393780887E-1,1.633444071E0,1.020528507E1
4.403431790E-1,-3.489548862E-1,1.662174582E0,9.123106003E0
4.423410960E-1,-2.914940715E-1,1.513733983E0,1.073200893E1
4.443389600E-1,-2.819172442E-1,1.671751380E0,9.060855865E0
4.463368250E-1,-3.202244639E-1,1.748365760E0,9.381679535E0
4.483346890E-1,-2.914940715E-1,1.417966008E0,1.079904652E1
4.503325540E-1,-2.531868219E-1,1.326986313E0,8.969876289E0
4.523304180E-1,-2.483984232E-1,1.269525409E0,1.048301220E1
4.543282830E-1,-2.148796022E-1,1.633444071E0,8.979453087E0
4.563261480E-1,-1.813607812E-1,1.403600693E0,1.005684471E1
4.583240120E-1,-2.005143911E-1,1.207276225E0,1.021486187E1
4.603218770E-1,-1.574187577E-1,1.695693374E0,9.664195061E0
4.623197410E-1,-1.478419602E-1,1.279102206E0,9.496601105E0
4.643176060E-1,-1.334767491E-1,1.590348482E0,9.525331497E0
4.663154710E-1,-1.095347255E-1,1.365293503E0,1.029626465E1
4.683133350E-1,-9.995792061E-2,1.317409515E0,9.549273491E0
4.703112000E-1,-1.238999367E-1,1.456273198E0,9.678560257E0
4.723090640E-1,-1.047463268E-1,1.408389091E0,9.793481827E0
4.743069290E-1,-1.622071713E-1,1.432331204E0,9.530119896E0
4.763047930E-1,-1.717839688E-1,1.446696401E0,9.812635422E0
4.783026580E-1,-1.765723825E-1,1.408389091E0,9.692925453E0
4.803005230E-1,-1.622071713E-1,1.307832718E0,9.434351921E0
4.822983870E-1,-1.669955701E-1,1.451484799E0,1.076073933E1
4.842962520E-1,-1.717839688E-1,1.403600693E0,8.811859131E0
4.862941160E-1,-2.005143911E-1,1.389235497E0,1.054047298E1
4.882919810E-1,-2.436100245E-1,1.384447098E0,9.228450775E0
4.902898460E-1,-2.436100245E-1,1.470638394E0,9.391256332E0
4.922877100E-1,-2.819172442E-1,1.264737010E0,1.055962658E1
4.942855750E-1,-3.298012912E-1,1.255160213E0,9.218873978E0
4.962833870E-1,-3.345896900E-1,1.470638394E0,1.040160942E1
4.982812000E-1,-3.776853085E-1,1.341351509E0,8.945934296E0
5.002790120E-1,-3.106476665E-1,1.283890605E0,1.016697788E1
5.022767730E-1,-3.633201122E-1,1.355716705E0,9.803058624E0
5.042745330E-1,-3.393780887E-1,1.441908002E0,9.209297180E0
5.062722930E-1,-3.345896900E-1,1.298255920E0,1.058356857E1
5.082698460E-1,-2.771288455E-1,1.595136881E0,8.845377922E0
5.102673980E-1,-2.723404467E-1,1.274313807E0,1.043991661E1
5.122649500E-1,-2.483984232E-1,1.274313807E0,9.161413193E0
5.142625020E-1,-2.005143911E-1,1.403600693E0,9.894038200E0
5.162600540E-1,-1.047463268E-1,1.140238523E0,1.024359226E1
5.182576060E-1,-9.516951442E-2,1.164180517E0,9.558850288E0
5.202551580E-1,-7.122749835E-2,1.413177609E0,9.688137054E0
5.222527100E-1,-2.813187055E-2,1.417966008E0,9.726444244E0
5.242502620E-1,-1.376665942E-2,1.441908002E0,9.247604370E0
5.262478140E-1,-4.189853091E-3,1.312621117E0,1.082298851E1
5.282454180E-1,5.985504249E-4,1.135450125E0,9.458293915E0
5.302430750E-1,-1.376665942E-2,1.504157186E0,1.028668785E1
5.322407830E-1,-8.978256024E-3,1.619078875E0,8.792705536E0
5.342385430E-1,-1.855506375E-2,1.729212165E0,9.367314339E0
5.362363560E-1,-4.728548229E-2,1.475426793E0,1.068891335E1
5.382342210E-1,-4.728548229E-2,1.556829691E0,8.878896713E0
5.402321370E-1,-3.292027488E-2,1.451484799E0,1.093312168E1
5.422300540E-1,-5.686229095E-2,1.470638394E0,9.108740807E0
5.442279710E-1,-1.143231317E-1,1.470638394E0,9.592369080E0
5.462258870E-1,-8.559270948E-2,1.575983286E0,9.276334763E0
5.482238040E-1,-1.095347255E-1,1.485003591E0,9.702502251E0
5.502217210E-1,-1.047463268E-1,1.188122630E0,1.032978344E1
5.522196370E-1,-1.813607812E-1,1.475426793E0,8.945934296E0
5.542175540E-1,-1.334767491E-1,1.279102206E0,1.092833328E1
5.562154710E-1,-2.340332121E-1,1.125873327E0,8.763975143E0
5.582133870E-1,-2.914940715E-1,1.145026922E0,1.040160942E1
5.602113040E-1,-3.010708690E-1,1.097142935E0,9.080010414E0
5.622091160E-1,-3.489548862E-1,1.097142935E0,9.999382973E0
5.642068770E-1,-3.872621357E-1,1.269525409E0,9.501389503E0
5.662046370E-1,-3.920505345E-1,1.111508131E0,1.015740108E1
5.682023980E-1,-4.064157307E-1,1.183334231E0,9.410409927E0
5.702001580E-1,-3.872621357E-1,1.470638394E0,9.611522675E0
5.721979180E-1,-3.393780887E-1,1.168969035E0,1.005205631E1
5.741956790E-1,-3.537433147E-1,1.063624144E0,1.002332497E1
5.761934910E-1,-3.393780887E-1,1.264737010E0,9.582792282E0
5.781913560E-1,-3.154360652E-1,1.326986313E0,9.482235909E0
5.801892730E-1,-3.298012912E-1,1.619078875E0,9.630676270E0
5.821872410E-1,-3.345896900E-1,1.293467522E0,9.975440979E0
5.841852620E-1,-3.298012912E-1,1.274313807E0,9.894038200E0
5.861832830E-1,-3.154360652E-1,1.542464495E0,9.285911560E0
5.881813040E-1,-2.962824702E-1,1.575983286E0,1.004726696E1
5.901793250E-1,-3.058592677E-1,1.614290476E0,9.396044731E0
5.921773460E-1,-3.250128925E-1,1.623867273E0,1.017176628E1
5.941753660E-1,-3.393780887E-1,1.805826664E0,8.663418770E0
5.961733870E-1,-3.010708690E-1,1.384447098E0,1.085650730E1
5.981714080E-1,-2.723404467E-1,1.585560083E0,9.185355186E0
6.001693250E-1,-2.867056429E-1,1.298255920E0,9.515754700E0
6.021671890E-1,-2.483984232E-1,1.188122630E0,1.016218948E1
6.041650540E-1,-2.292448133E-1,1.039682031E0,9.846154213E0
6.061628140E-1,-1.622071713E-1,7.523778677E-1,1.036809063E1
6.081605750E-1,-1.478419602E-1,8.242039084E-1,9.597157478E0
6.101581790E-1,-1.191115379E-1,1.001374841E0,9.487024307E0
6.121557830E-1,-1.095347255E-1,1.010951638E0,9.156624794E0
6.141533870E-1,-9.038111567E-2,1.154603720E0,9.290699959E0
6.161509910E-1,-2.334346622E-2,9.678560495E-1,1.040160942E1
6.181485960E-1,-1.855506375E-2,1.015740037E0,1.046864700E1
6.201462000E-1,-4.249707982E-2,1.111508131E0,9.419986725E0
6.221438560E-1,-9.038111567E-2,1.346139908E0,8.883685112E0
6.241415640E-1,-4.249707982E-2,9.487023950E-1,1.028668785E1
6.261393250E-1,-9.995792061E-2,1.135450125E0,9.510966301E0
6.281371370E-1,-1.334767491E-1,1.039682031E0,1.037287903E1
6.301350020E-1,-7.122749835E-2,1.355716705E0,9.764751434E0
6.321329180E-1,-1.238999367E-1,1.288679123E0,1.032499504E1
6.341308870E-1,-1.957259923E-1,1.336563110E0,8.763975143E0
6.361289080E-1,-1.861491799E-1,1.245583415E0,9.932345390E0
6.381269810E-1,-2.292448133E-1,1.231218219E0,9.252392769E0
6.401251060E-1,-2.627636492E-1,1.178545833E0,9.841365814E0
6.421232310E-1,-2.436100245E-1,7.858967185E-1,9.645041466E0
6.441213560E-1,-2.723404467E-1,9.343371987E-1,9.889249802E0
6.461194810E-1,-2.771288455E-1,7.140706778E-1,1.059314537E1
6.481176060E-1,-3.058592677E-1,7.284358740E-1,9.510966301E0
6.501156790E-1,-2.292448133E-1,9.247604012E-1,9.386467934E0
6.521135960E-1,-2.579752207E-1,5.943605900E-1,1.070327854E1
6.541114600E-1,-2.531868219E-1,1.054047346E0,9.309853554E0
6.561093250E-1,-2.292448133E-1,8.481459618E-1,9.975440979E0
6.581071890E-1,-3.250128925E-1,9.870096445E-1,9.060855865E0
6.601050540E-1,-2.436100245E-1,9.870096445E-1,9.707290649E0
6.621029180E-1,-2.675520480E-1,9.582792521E-1,9.783905029E0
6.641006790E-1,-2.771288455E-1,1.145026922E0,9.300276756E0
6.660984390E-1,-2.292448133E-1,8.672995567E-1,1.050216579E1
6.680962000E-1,-2.531868219E-1,1.039682031E0,1.016697788E1
6.700939600E-1,-2.531868219E-1,1.121084929E0,9.501389503E0
6.720917210E-1,-3.058592677E-1,1.504157186E0,9.343372345E0
6.740894810E-1,-2.292448133E-1,1.370081902E0,9.352949142E0
6.760872410E-1,-2.962824702E-1,1.245583415E0,9.855731010E0
6.780850020E-1,-2.723404467E-1,1.250371814E0,9.956287384E0
6.800827620E-1,-3.010708690E-1,1.226429820E0,9.731232643E0
6.820805230E-1,-3.537433147E-1,9.008184075E-1,1.007120991E1
6.840782830E-1,-3.154360652E-1,1.164180517E0,9.659406662E0
6.860760430E-1,-3.441664875E-1,1.125873327E0,9.142259598E0
6.880738040E-1,-3.537433147E-1,7.906851172E-1,1.043512821E1
6.900716160E-1,-4.064157307E-1,8.864531517E-1,9.707290649E0
6.920694810E-1,-3.441664875E-1,7.380126715E-1,1.031541824E1
6.940673460E-1,-3.728969097E-1,1.006163239E0,9.501389503E0
6.960652100E-1,-4.255693555E-1,1.121084929E0,9.238027573E0
6.980630750E-1,-3.585317135E-1,7.619546652E-1,1.038245583E1
7.000609390E-1,-3.968389332E-1,9.151836038E-1,9.281123161E0
7.020588040E-1,-3.776853085E-1,1.135450125E0,9.654618263E0
7.040566680E-1,-3.633201122E-1,1.168969035E0,1.000417137E1
7.060545330E-1,-4.303577542E-1,1.140238523E0,9.137471199E0
7.080522410E-1,-3.728969097E-1,1.384447098E0,9.793481827E0
7.100499500E-1,-4.016273320E-1,9.917980433E-1,9.874884605E0
7.120476060E-1,-4.255693555E-1,1.269525409E0,9.458293915E0
7.140452620E-1,-4.016273320E-1,1.044470549E0,1.050216579E1
7.160429180E-1,-4.447229803E-1,8.481459618E-1,9.702502251E0
7.180405750E-1,-4.782418013E-1,1.168969035E0,1.013345909E1
7.200382310E-1,-4.926069975E-1,1.130661726E0,1.026274586E1
7.220358870E-1,-4.734533727E-1,1.346139908E0,8.893261909E0
7.240335430E-1,-4.590881765E-1,8.816647530E-1,1.052610779E1
7.260312000E-1,-4.734533727E-1,1.077989340E0,8.926780701E0
7.280288560E-1,-5.021837950E-1,7.811083198E-1,9.759963036E0
7.300265120E-1,-4.159925580E-1,6.326677799E-1,9.970652580E0
7.320241680E-1,-3.728969097E-1,4.842272997E-1,9.994594574E0
7.340218250E-1,-3.106476665E-1,7.906851172E-1,1.009994030E1
7.360194810E-1,-2.483984232E-1,4.842272997E-1,9.980229378E0
7.380171370E-1,-1.909375787E-1,8.672995567E-1,9.017760277E0
7.400147930E-1,-1.861491799E-1,9.870096445E-1,9.774328232E0
7.420125020E-1,-9.995792061E-2,3.932476342E-1,1.052131939E1
7.440102620E-1,-9.038111567E-2,7.380126715E-1,9.482235909E0
7.460080750E-1,-3.770867735E-2,9.870096445E-1,9.798270226E0
7.480059390E-1,-7.122749835E-2,1.408389091E0,8.433575630E0
7.500038560E-1,5.985504249E-4,8.146271110E-1,1.018613148E1
7.520018250E-1,1.975216344E-2,1.054047346E0,9.803058624E0
7.539997930E-1,1.496376097E-2,1.255160213E0,9.324218750E0
7.559977620E-1,7.721300423E-2,9.391255975E-1,1.072243214E1
7.579957310E-1,1.107318252E-1,1.336563110E0,8.969876289E0
7.599937000E-1,1.155202314E-1,1.465849996E0,1.001853657E1
7.619916680E-1,9.636662155E-2,1.202487826E0,9.113529205E0
7.639896370E-1,1.969230920E-1,1.480215192E0,9.879673004E0
7.659875540E-1,1.729810685E-1,1.475426793E0,9.520543098E0
7.679853140E-1,1.107318252E-1,1.240795016E0,1.017655468E1
7.699830750E-1,1.203086376E-1,1.504157186E0,9.041702271E0
7.719808350E-1,1.873462796E-1,1.566406488E0,1.033936024E1
7.739785430E-1,1.729810685E-1,9.917980433E-1,1.020049667E1
7.759762520E-1,1.729810685E-1,1.681328177E0,8.720879555E0
7.779739600E-1,2.352303118E-1,1.259948611E0,1.039203262E1
7.799716680E-1,1.250970364E-1,1.221641421E0,9.137471199E0
7.819693770E-1,2.112883031E-1,1.121084929E0,1.012867069E1
7.839670850E-1,1.634042710E-1,1.082777739E0,9.630676270E0
7.859647930E-1,1.442506462E-1,1.231218219E0,9.884461403E0
7.879625540E-1,7.242459804E-2,1.030105233E0,9.453505516E0
7.899603660E-1,1.346738487E-1,1.125873327E0,9.721655846E0
7.919582310E-1,8.200141042E-2,8.672995567E-1,1.017176628E1
7.939561480E-1,-3.770867735E-2,8.385691643E-1,9.616311073E0
7.959541160E-1,-3.770867735E-2,8.481459618E-1,9.673771858E0
7.979521370E-1,-9.995792061E-2,9.630676508E-1,9.333795547E0
7.999501580E-1,-1.526303589E-1,7.523778677E-1,9.582792282E0
8.019481790E-1,-1.669955701E-1,1.178545833E0,9.664195061E0
8.039462000E-1,-1.669955701E-1,1.192911029E0,9.625887871E0
8.059442210E-1,-2.196680009E-1,1.073200941E0,9.089587212E0
8.079422410E-1,-1.861491799E-1,1.106719732E0,1.058356857E1
8.099402620E-1,-1.957259923E-1,1.082777739E0,8.811859131E0
8.119382830E-1,-1.334767491E-1,1.197699428E0,1.021486187E1
8.139363040E-1,-9.038111567E-2,1.044470549E0,9.400833130E0
8.159343250E-1,-1.382651478E-1,1.010951638E0,1.067454815E1
8.179323460E-1,-1.143231317E-1,1.188122630E0,9.611522675E0
8.199303660E-1,-7.122749835E-2,1.116296530E0,9.573215485E0
8.219283350E-1,-3.292027488E-2,1.221641421E0,9.467870712E0
8.239261480E-1,-2.813187055E-2,1.015740037E0,9.554061890E0
8.259238040E-1,1.017535757E-2,7.188590765E-1,1.111029339E1
8.279211480E-1,5.805939063E-2,1.255160213E0,9.060855865E0
8.299184910E-1,6.763619930E-2,1.173757434E0,9.846154213E0
8.319158350E-1,1.011550203E-1,1.370081902E0,9.506177902E0
8.339131790E-1,8.678980917E-2,1.207276225E0,9.587580681E0
8.359105230E-1,8.200141042E-2,1.504157186E0,9.941922188E0
8.379078660E-1,1.107318252E-1,1.671751380E0,8.816647530E0
8.399052620E-1,8.678980917E-2,1.532887697E0,1.027711105E1
8.419027100E-1,7.242459804E-2,1.537676096E0,8.926780701E0
8.439002100E-1,1.729810685E-1,1.192911029E0,1.102410126E1
8.458978140E-1,9.157821536E-2,1.068412542E0,8.462306023E0
8.478955230E-1,1.538274586E-1,1.470638394E0,1.032499504E1
8.498932830E-1,1.825578809E-1,1.173757434E0,9.764751434E0
8.518910960E-1,2.256535143E-1,1.197699428E0,9.563638687E0
8.538889600E-1,2.495955229E-1,1.298255920E0,9.515754700E0
8.558868770E-1,2.304419130E-1,1.135450125E0,1.000417137E1
8.578848460E-1,2.687491477E-1,1.274313807E0,9.510966301E0
8.598828660E-1,2.974795699E-1,1.365293503E0,1.029147625E1
8.618809390E-1,2.687491477E-1,1.767519355E0,9.879673004E0
8.638790640E-1,2.208651006E-1,1.470638394E0,1.001374817E1
8.658772410E-1,1.777694821E-1,1.250371814E0,9.271546364E0
8.678754710E-1,1.921346933E-1,1.690904975E0,9.271546364E0
8.698737000E-1,1.634042710E-1,1.475426793E0,9.659406662E0
8.718719290E-1,1.442506462E-1,1.130661726E0,1.061708736E1
8.738701580E-1,4.848258570E-2,1.446696401E0,8.792705536E0
8.758681790E-1,6.284779310E-2,1.566406488E0,1.052610779E1
8.778660960E-1,-4.249707982E-2,1.250371814E0,9.678560257E0
8.798639080E-1,-8.978256024E-3,1.312621117E0,9.764751434E0
8.818617210E-1,-5.686229095E-2,1.633444071E0,9.793481827E0
8.838594810E-1,-8.559270948E-2,1.188122630E0,9.793481827E0
8.858572410E-1,-1.238999367E-1,1.250371814E0,1.028189945E1
8.878550020E-1,-1.622071713E-1,1.221641421E0,9.065644264E0
8.898527620E-1,-1.717839688E-1,9.726444483E-1,1.011430550E1
8.918505230E-1,-1.717839688E-1,8.337807655E-1,9.008183479E0
8.938482830E-1,-1.478419602E-1,2.064998895E-1,1.027711105E1
8.958460430E-1,-2.196680009E-1,6.087257862E-1,1.009994030E1
8.978438040E-1,-2.196680009E-1,3.597288132E-1,9.702502251E0
8.998415640E-1,-1.382651478E-1,8.678980917E-2,1.073679733E1
9.018393250E-1,-1.574187577E-1,5.321113467E-1,8.505401611E0
9.038370850E-1,-1.238999367E-1,6.422445774E-1,1.001853657E1
9.058348460E-1,-1.861491799E-1,7.906851172E-1,9.898826599E0
9.078326060E-1,-1.238999367E-1,5.895721912E-1,9.822212219E0
9.098303660E-1,-8.559270948E-2,7.092822790E-1,1.032499504E1
9.118281270E-1,-1.286883354E-1,9.103952050E-1,9.309853554E0
9.138258870E-1,-1.047463268E-1,9.965864420E-1,9.850942612E0
9.158236480E-1,-9.038111567E-2,1.350928307E0,9.487024307E0
9.178214080E-1,-1.430535465E-1,1.336563110E0,9.625887871E0
9.198191680E-1,-7.601590455E-2,1.006163239E0,1.035372543E1
9.218169290E-1,-8.978256024E-3,1.599925280E0,9.372102737E0
9.238146890E-1,-6.165069342E-2,1.030105233E0,1.036809063E1
9.258124500E-1,-5.207388848E-2,8.864531517E-1,9.434351921E0
9.278102620E-1,-6.643909961E-2,1.236006618E0,9.726444244E0
9.298081270E-1,-2.334346622E-2,1.006163239E0,1.009036350E1
9.318060430E-1,2.932897024E-2,8.720879555E-1,1.002332497E1
9.338039600E-1,2.454056777E-2,1.470638394E0,1.008557510E1
9.358018770E-1,4.369417951E-2,1.757942557E0,9.697713852E0
9.377997930E-1,1.496376097E-2,1.959055543E0,9.194931984E0
9.397977100E-1,6.284779310E-2,1.504157186E0,9.539696693E0
9.417956270E-1,7.721300423E-2,9.630676508E-1,1.009994030E1
9.437935430E-1,1.107318252E-1,9.199720025E-1,9.879673004E0
9.457914600E-1,1.729810685E-1,3.309983909E-1,1.061708736E1
9.477893770E-1,1.586158574E-1,4.842272997E-1,8.969876289E0
9.497872930E-1,2.879027426E-1,6.613982320E-1,1.037287903E1
9.517851580E-1,2.352303118E-1,7.763199210E-1,9.084798813E0
9.537829710E-1,2.783259451E-1,6.230909824E-1,9.822212219E0
9.557806790E-1,2.208651006E-1,1.044470549E0,9.515754700E0
9.577783870E-1,2.974795699E-1,8.194155097E-1,1.039682102E1
9.597760960E-1,1.969230920E-1,9.247604012E-1,1.054526138E1
9.617738040E-1,8.678980917E-2,1.274313807E0,9.496601105E0
9.637715120E-1,1.490390599E-1,2.117072821E0,8.950722694E0
9.657692210E-1,8.200141042E-2,1.954267144E0,1.026753426E1
9.677669290E-1,-8.978256024E-3,1.255160213E0,9.879673004E0
9.697646370E-1,1.017535757E-2,1.700481772E0,9.999382973E0
9.717623460E-1,-1.376665942E-2,1.887229443E0,1.015261269E1
9.737600540E-1,-3.292027488E-2,1.915959954E0,9.649829865E0
9.757577620E-1,-3.292027488E-2,2.083554029E0,9.630676270E0
9.777554710E-1,-8.978256024E-3,1.853710651E0,9.956287384E0
9.797531790E-1,-1.286883354E-1,1.963843942E0,8.816647530E0
9.817508870E-1,-1.143231317E-1,1.590348482E0,9.649829865E0
9.837485960E-1,-5.207388848E-2,1.394023895E0,9.927556992E0
9.857463040E-1,-8.978256024E-3,8.481459618E-1,1.055962658E1
9.877440120E-1,-9.038111567E-2,9.965864420E-1,9.563638687E0
9.897417210E-1,-9.038111567E-2,8.385691643E-1,9.391256332E0
9.917394290E-1,-1.143231317E-1,8.146271110E-1,8.491036415E0
9.937371370E-1,-1.191115379E-1,5.608417392E-1,9.621099472E0
9.957348460E-1,-1.430535465E-1,4.938040972E-1,1.000895977E1
9.977325540E-1,-1.191115379E-1,3.309983909E-1,1.109113979E1
9.997302620E-1,-5.207388848E-2,5.991489887E-1,9.472659111E0
1.001727971E0,-1.574187577E-1,7.236474752E-1,1.038724422E1
1.003725679E0,-1.909375787E-1,7.523778677E-1,9.017760277E0
1.005723387E0,-1.382651478E-1,1.451484799E0,9.530119896E0
1.007721096E0,-1.717839688E-1,9.630676508E-1,1.006163311E1
1.009718856E0,-1.622071713E-1,1.374870300E0,9.180566788E0
1.011716668E0,-1.717839688E-1,1.571194887E0,9.951498985E0
1.013714533E0,-1.813607812E-1,1.063624144E0,1.096664047E1
1.015712398E0,-2.483984232E-1,1.729212165E0,8.141483307E0
1.017710262E0,-2.005143911E-1,1.317409515E0,1.023880386E1
1.019708127E0,-1.861491799E-1,1.097142935E0,9.472659111E0
1.021705991E0,-2.005143911E-1,1.044470549E0,1.049737740E1
1.023703856E0,-2.962824702E-1,1.657386184E0,8.620323181E0
1.025701721E0,-2.867056429E-1,1.058835745E0,1.046864700E1
1.027699585E0,-3.058592677E-1,1.312621117E0,8.854954720E0
1.029697450E0,-3.776853085E-1,1.068412542E0,1.003290176E1
1.031695314E0,-4.878185987E-1,1.154603720E0,9.367314339E0
1.033693179E0,-4.926069975E-1,1.355716705E0,9.017760277E0
1.035691043E0,-4.878185987E-1,1.130661726E0,1.012867069E1
1.037688908E0,-4.926069975E-1,5.991489887E-1,1.039682102E1
1.039686773E0,-4.399345517E-1,8.481459618E-1,9.913191795E0
1.041684637E0,-4.447229803E-1,1.417966008E0,9.467870712E0
1.043682502E0,-4.447229803E-1,1.178545833E0,9.812635422E0
1.045680366E0,-3.872621357E-1,1.183334231E0,8.371326447E0
1.047678231E0,-3.872621357E-1,8.098387122E-1,1.028668785E1
1.049676096E0,-3.681085110E-1,8.672995567E-1,1.024838066E1
1.051673960E0,-3.537433147E-1,1.116296530E0,9.305065155E0
1.053671825E0,-3.202244639E-1,1.082777739E0,1.059793377E1
1.055669689E0,-3.250128925E-1,1.255160213E0,8.558073997E0
1.057667554E0,-3.441664875E-1,1.058835745E0,9.965864182E0
1.059665418E0,-3.345896900E-1,8.625111580E-1,9.434351921E0
1.061663283E0,-2.053027898E-1,5.943605900E-1,1.071764374E1
1.063661148E0,-2.914940715E-1,6.566098332E-1,9.036913872E0
1.065659012E0,-2.340332121E-1,4.842272997E-1,1.048301220E1
1.067656877E0,-2.483984232E-1,9.247604012E-1,8.644265175E0
1.069654741E0,-2.627636492E-1,5.225345492E-1,9.659406662E0
1.071652606E0,-3.585317135E-1,9.636662155E-2,1.026753426E1
1.073650418E0,-3.681085110E-1,5.177460909E-1,9.218873978E0
1.075647971E0,-3.537433147E-1,1.298854351E-1,1.006163311E1
1.077645523E0,-4.830302000E-1,9.636662155E-2,9.467870712E0
1.079643075E0,-3.489548862E-1,6.326677799E-1,1.038245583E1
1.081640627E0,-3.776853085E-1,4.890156984E-1,9.190143585E0
1.083638179E0,-3.298012912E-1,5.368997455E-1,1.097621727E1
1.085635731E0,-3.537433147E-1,8.960300088E-1,9.520543098E0
1.087633283E0,-2.244564146E-1,1.259948611E0,9.812635422E0
1.089630835E0,-2.388216257E-1,1.288679123E0,9.080010414E0
1.091628387E0,-8.559270948E-2,1.489791989E0,9.180566788E0
1.093625991E0,-5.207388848E-2,1.283890605E0,1.020528507E1
1.095623596E0,7.242459804E-2,9.822212458E-1,1.070327854E1
1.097621200E0,7.242459804E-2,1.001374841E0,9.352949142E0
1.099618856E0,1.346738487E-1,1.039682031E0,1.046385860E1
1.101616564E0,1.250970364E-1,9.678560495E-1,8.361749649E0
1.103614325E0,1.825578809E-1,5.847837925E-1,1.035851383E1
1.105612085E0,1.825578809E-1,4.938040972E-1,9.702502251E0
1.107609846E0,2.352303118E-1,6.853402257E-1,1.012388229E1
1.109607606E0,1.538274586E-1,7.667431235E-1,9.702502251E0
1.111605366E0,1.729810685E-1,7.571662664E-1,9.515754700E0
1.113603127E0,1.825578809E-1,9.487023950E-1,9.137471199E0
1.115600887E0,9.157821536E-2,4.124012291E-1,9.870096207E0
1.117598648E0,1.394622475E-1,1.634042710E-1,1.085171890E1
1.119596408E0,6.284779310E-2,1.250970364E-1,9.702502251E0
1.121594168E0,-8.978256024E-3,1.059434265E-1,8.984241486E0
1.123591929E0,-8.559270948E-2,2.064998895E-1,9.554061890E0
1.125589689E0,-1.382651478E-1,-1.526303589E-1,9.534908295E0
1.127587450E0,-2.005143911E-1,-5.117605925E-1,1.053568459E1
1.129585210E0,-1.957259923E-1,1.250970364E-1,9.697713852E0
1.131582971E0,-2.531868219E-1,-5.207388848E-2,9.850942612E0
1.133580731E0,-3.585317135E-1,5.225345492E-1,9.103952408E0
1.135578491E0,-3.633201122E-1,2.352303118E-1,9.841365814E0
1.137576252E0,-2.867056429E-1,5.704185367E-1,1.002811337E1
1.139574012E0,-3.250128925E-1,2.926911712E-1,9.496601105E0
1.141571773E0,-2.914940715E-1,8.720879555E-1,9.688137054E0
1.143569533E0,-2.675520480E-1,5.704185367E-1,1.031062984E1
1.145567293E0,-2.675520480E-1,8.194155097E-1,9.357737541E0
1.147564898E0,-2.148796022E-1,7.475894690E-1,9.932345390E0
1.149562502E0,-2.531868219E-1,6.374561787E-1,9.482235909E0
1.151560106E0,-2.100912035E-1,9.247604012E-1,9.295488358E0
1.153557710E0,-2.675520480E-1,-2.813187055E-2,1.043512821E1
1.155555314E0,-2.723404467E-1,2.735375464E-1,8.907627106E0
1.157552918E0,-3.010708690E-1,3.884592354E-1,9.391256332E0
1.159550523E0,-2.867056429E-1,-1.382651478E-1,1.005684471E1
1.161548127E0,-3.441664875E-1,4.698620737E-1,8.438364029E0
1.163545731E0,-3.298012912E-1,-3.633201122E-1,1.136886692E1
1.165543387E0,-3.537433147E-1,-1.526303589E-1,8.725667953E0
1.167541096E0,-3.154360652E-1,-3.393780887E-1,1.064581776E1
1.169538856E0,-3.202244639E-1,-1.047463268E-1,9.113529205E0
1.171536668E0,-2.771288455E-1,-3.292027488E-2,1.031541824E1
1.173534533E0,-3.154360652E-1,3.411737457E-2,8.859743118E0
1.175532398E0,-2.962824702E-1,2.448071241E-1,9.635464668E0
1.177530262E0,-2.531868219E-1,-1.095347255E-1,1.063145256E1
1.179528127E0,-3.106476665E-1,2.454056777E-2,9.702502251E0
1.181525991E0,-2.723404467E-1,1.346738487E-1,1.003769016E1
1.183523856E0,-2.388216257E-1,5.386953708E-3,9.850942612E0
1.185521721E0,-2.675520480E-1,-3.770867735E-2,9.429563522E0
1.187519585E0,-2.005143911E-1,1.777694821E-1,1.010951710E1
1.189517346E0,-2.436100245E-1,-1.095347255E-1,9.132682800E0
1.191515106E0,-2.292448133E-1,2.543839216E-1,1.005684471E1
1.193512814E0,-2.340332121E-1,-7.122749835E-2,9.956287384E0
1.195510471E0,-2.196680009E-1,1.586158574E-1,9.276334763E0
1.197508127E0,-1.717839688E-1,-2.196680009E-1,9.530119896E0
1.199505783E0,-1.957259923E-1,4.848258570E-2,9.803058624E0
1.201503439E0,-8.080431074E-2,-1.382651478E-1,1.050695419E1
1.203501096E0,-9.516951442E-2,3.214215636E-1,9.032125473E0
1.205498752E0,-5.207388848E-2,1.490390599E-1,1.056920338E1
1.207496408E0,-1.286883354E-1,2.160767019E-1,9.276334763E0
1.209494064E0,-1.191115379E-1,1.107318252E-1,9.807847023E0
1.211491773E0,-9.516951442E-2,-8.978256024E-3,9.913191795E0
1.213489533E0,-3.770867735E-2,-1.813607812E-1,9.870096207E0
1.215487346E0,-5.686229095E-2,3.411737457E-2,1.016697788E1
1.217485210E0,-8.978256024E-3,2.256535143E-1,8.998606682E0
1.219483127E0,1.496376097E-2,2.974795699E-1,9.391256332E0
1.221481096E0,2.932897024E-2,-9.995792061E-2,1.005205631E1
1.223479064E0,6.763619930E-2,-1.574187577E-1,9.855731010E0
1.225477033E0,1.825578809E-1,3.411737457E-2,1.046864700E1
1.227475002E0,1.586158574E-1,3.890577704E-2,9.640253067E0
1.229472971E0,2.208651006E-1,3.166331649E-1,9.812635422E0
1.231470939E0,2.783259451E-1,3.166331649E-1,1.015261269E1
1.233468908E0,2.926911712E-1,1.921346933E-1,1.061229897E1
1.235466877E0,2.448071241E-1,7.044938207E-1,9.257181168E0
1.237464689E0,2.687491477E-1,8.768763542E-1,9.649829865E0
1.239462293E0,2.017114908E-1,8.577227592E-1,9.606734276E0
1.241459898E0,2.639607489E-1,8.577227592E-1,9.635464668E0
1.243457502E0,1.538274586E-1,1.039682031E0,8.898050308E0
1.245455106E0,1.873462796E-1,6.422445774E-1,1.020049667E1
1.247452710E0,1.346738487E-1,5.560533404E-1,9.664195061E0
1.249450314E0,1.873462796E-1,4.507084787E-1,1.045428181E1
1.251447918E0,2.160767019E-1,2.639607489E-1,9.846154213E0
1.253445575E0,2.017114908E-1,2.591723204E-1,9.989806175E0
1.255443283E0,2.208651006E-1,2.064998895E-1,9.673771858E0
1.257441043E0,1.969230920E-1,7.721300423E-2,9.506177902E0
1.259438856E0,2.112883031E-1,-1.765723825E-1,9.300276756E0
1.261436721E0,2.352303118E-1,-1.717839688E-1,9.668983459E0
1.263434637E0,3.022679687E-1,-3.345896900E-1,1.057399178E1
1.265432554E0,2.879027426E-1,-4.686649740E-1,1.000417137E1
1.267430471E0,2.591723204E-1,-5.787982345E-1,9.271546364E0
1.269428387E0,2.400187254E-1,3.411737457E-2,9.731232643E0
1.271426304E0,1.777694821E-1,-6.218938828E-1,9.592369080E0
1.273424221E0,1.729810685E-1,-7.846996188E-1,1.038724422E1
1.275422137E0,1.298854351E-1,-5.740098357E-1,9.501389503E0
1.277419689E0,1.298854351E-1,-1.043273449E0,1.033936024E1
1.279417241E0,-4.189853091E-3,-8.038532138E-1,9.151836395E0
1.281414793E0,8.200141042E-2,-8.517372608E-1,9.587580681E0
1.283412346E0,4.369417951E-2,-8.421604633E-1,9.391256332E0
1.285409898E0,5.386953708E-3,-1.249174714E0,1.051653099E1
1.287407502E0,1.017535757E-2,-8.277952671E-1,1.061708736E1
1.289405158E0,4.848258570E-2,-1.220444322E0,1.041597462E1
1.291402866E0,-4.728548229E-2,-5.500678420E-1,8.582015991E0
1.293400627E0,5.985504249E-4,-7.128735781E-1,9.645041466E0
1.295398439E0,-3.292027488E-2,-7.463923693E-1,9.582792282E0
1.297396304E0,-3.292027488E-2,-6.362590790E-1,9.731232643E0
1.299394221E0,-2.334346622E-2,-4.399345517E-1,1.021965027E1
1.301392189E0,6.284779310E-2,-3.968389332E-1,9.506177902E0
1.303390158E0,-3.770867735E-2,-5.686229095E-2,9.707290649E0
1.305388127E0,7.242459804E-2,-5.207388848E-2,9.190143585E0
1.307386096E0,1.017535757E-2,-9.038111567E-2,9.908403397E0
1.309384064E0,1.155202314E-1,-5.261258483E-1,1.066497135E1
1.311382033E0,9.636662155E-2,-2.005143911E-1,9.573215485E0
1.313380002E0,2.112883031E-1,-1.376665942E-2,9.941922188E0
1.315377762E0,2.208651006E-1,-3.920505345E-1,9.798270226E0
1.317375523E0,2.064998895E-1,-4.728548229E-2,9.836577415E0
1.319373283E0,2.831143439E-1,-4.189853091E-3,9.573215485E0
1.321371043E0,2.448071241E-1,-2.723404467E-1,9.343372345E0
1.323368804E0,1.203086376E-1,-5.500678420E-1,9.879673004E0
1.325366564E0,2.591723204E-1,-7.416039705E-1,1.011909389E1
1.327364325E0,1.777694821E-1,-8.613140583E-1,9.625887871E0
1.329362085E0,1.777694821E-1,-4.207809567E-1,9.496601105E0
1.331359846E0,1.969230920E-1,-1.909375787E-1,9.534908295E0
1.333357606E0,1.586158574E-1,-2.723404467E-1,9.774328232E0
1.335355418E0,1.346738487E-1,1.155202314E-1,1.004247856E1
1.337353231E0,2.017114908E-1,5.386953708E-3,9.726444244E0
1.339351096E0,7.721300423E-2,1.107318252E-1,9.769539833E0
1.341349012E0,1.777694821E-1,-1.526303589E-1,9.903614998E0
1.343346929E0,1.155202314E-1,3.549404144E-1,8.797493935E0
1.345344846E0,4.848258570E-2,-3.633201122E-1,1.044470501E1
1.347342762E0,1.394622475E-1,-9.516951442E-2,1.021965027E1
1.349340679E0,4.848258570E-2,-4.728548229E-2,9.759963036E0
1.351338596E0,5.985504249E-4,-4.064157307E-1,1.058835697E1
1.353336512E0,-5.207388848E-2,-3.292027488E-2,8.208520889E0
1.355334273E0,-1.143231317E-1,-7.607575655E-1,1.019570827E1
1.357331877E0,-1.957259923E-1,-1.249174714E0,9.137471199E0
1.359329481E0,-2.340332121E-1,-1.593939781E0,1.160349846E1
1.361327085E0,-3.010708690E-1,-1.081580639E0,9.578003883E0
1.363324689E0,-3.010708690E-1,-5.309142470E-1,1.006163311E1
1.365322293E0,-3.920505345E-1,-5.069721937E-1,8.763975143E0
1.367319898E0,-4.542997777E-1,-1.238999367E-1,9.803058624E0
1.369317502E0,-4.878185987E-1,-1.622071713E-1,1.014782429E1
1.371315158E0,-5.165489912E-1,2.495955229E-1,9.798270226E0
1.373312866E0,-6.554127336E-1,-9.516951442E-2,1.014782429E1
1.375310627E0,-6.506243348E-1,1.496376097E-2,9.132682800E0
1.377308439E0,-7.320271730E-1,-2.579752207E-1,1.017655468E1
1.379306252E0,-7.416039705E-1,-1.957259923E-1,9.142259598E0
1.381304064E0,-7.176619768E-1,-6.602011323E-1,1.067454815E1
1.383301877E0,-7.942764163E-1,-6.649895310E-1,8.687360764E0
1.385299689E0,-6.506243348E-1,-5.261258483E-1,9.764751434E0
1.387297502E0,-7.990648150E-1,-1.129464626E0,9.161413193E0
1.389295314E0,-6.362590790E-1,-1.273116708E0,1.035372543E1
1.391293127E0,-6.266822815E-1,-1.186925530E0,9.362525940E0
1.393290939E0,-6.410474777E-1,-1.297058821E0,1.030584145E1
1.395288752E0,-4.303577542E-1,-1.469441295E0,9.961075783E0
1.397286564E0,-3.345896900E-1,-1.613093376E0,1.006163311E1
1.399284377E0,-2.962824702E-1,-1.498171687E0,8.831012726E0
1.401282189E0,-2.196680009E-1,-1.459864497E0,9.611522675E0
1.403280002E0,-1.382651478E-1,-1.943493247E0,1.059793377E1
1.405277814E0,-6.643909961E-2,-1.574786186E0,9.266757965E0
1.407275627E0,-3.292027488E-2,-1.809417963E0,1.111987019E1
1.409273439E0,-8.978256024E-3,-1.713649869E0,9.357737541E0
1.411271252E0,-6.643909961E-2,-1.474229693E0,9.180566788E0
1.413269064E0,-8.559270948E-2,-1.474229693E0,9.894038200E0
1.415266877E0,-2.813187055E-2,-1.675342679E0,1.061708736E1
1.417264689E0,-9.038111567E-2,-1.766322255E0,9.597157478E0
1.419262502E0,-4.728548229E-2,-1.814206362E0,1.051653099E1
1.421260314E0,-9.995792061E-2,-1.761533856E0,8.960299492E0
1.423258127E0,-7.122749835E-2,-1.239597917E0,9.568427086E0
1.425255939E0,-1.430535465E-1,-1.833359957E0,9.147047997E0
1.427253752E0,-1.574187577E-1,-2.082356930E0,1.090917969E1
1.429251564E0,-1.669955701E-1,-2.216432333E0,9.534908295E0
1.431249377E0,-2.531868219E-1,-2.374449492E0,1.015740108E1
1.433247189E0,-1.957259923E-1,-2.637811661E0,9.496601105E0
1.435245002E0,-2.053027898E-1,-2.513313293E0,1.010951710E1
1.437242814E0,-2.148796022E-1,-2.934692621E0,1.015261269E1
1.439240627E0,-2.388216257E-1,-2.977788448E0,9.654618263E0
1.441238439E0,-2.675520480E-1,-2.996942043E0,1.019091988E1
1.443236252E0,-2.531868219E-1,-3.293823004E0,9.917980194E0
1.445234064E0,-2.340332121E-1,-3.049614429E0,9.874884605E0
1.447231877E0,-2.196680009E-1,-2.805405855E0,9.621099472E0
1.449229689E0,-1.861491799E-1,-2.762310266E0,1.053089619E1
1.451227346E0,-1.286883354E-1,-2.652176857E0,9.108740807E0
1.453225002E0,-1.382651478E-1,-2.676118851E0,1.040160942E1
1.455222658E0,-1.382651478E-1,-2.877231836E0,9.831789017E0
1.457220314E0,-1.382651478E-1,-2.245162725E0,9.008183479E0
1.459217971E0,-1.478419602E-1,-2.728791475E0,1.003769016E1
1.461215627E0,-1.047463268E-1,-2.585139275E0,8.898050308E0
1.463213283E0,-1.478419602E-1,-3.265092611E0,1.069849014E1
1.465210939E0,-5.207388848E-2,-3.001730442E0,9.745597839E0
1.467208596E0,-4.189853091E-3,-3.054402828E0,9.573215485E0
1.469206304E0,1.346738487E-1,-2.838924646E0,9.089587212E0
1.471204064E0,2.256535143E-1,-3.241150618E0,1.023401546E1
1.473201877E0,2.448071241E-1,-3.470993996E0,9.922768593E0
1.475199741E0,2.448071241E-1,-3.533243179E0,1.021486187E1
1.477197658E0,1.825578809E-1,-3.370437384E0,8.936357498E0
1.479195575E0,7.721300423E-2,-3.753509760E0,9.520543098E0
1.481193491E0,-8.559270948E-2,-3.633799553E0,9.812635422E0
1.483191408E0,-4.249707982E-2,-3.858854532E0,1.044470501E1
1.485189325E0,-1.526303589E-1,-3.734356165E0,8.859743118E0
1.487187241E0,-1.717839688E-1,-4.007295132E0,1.015740108E1
1.489185158E0,-2.005143911E-1,-3.911526918E0,9.295488358E0
1.491183075E0,-9.038111567E-2,-4.380790710E0,1.096664047E1
1.493180991E0,-2.334346622E-2,-4.237138271E0,9.060855865E0
1.495178908E0,7.721300423E-2,-4.447828293E0,1.050695419E1
1.497176773E0,4.848258570E-2,-4.596268654E0,9.065644264E0
1.499174533E0,1.586158574E-1,-4.433463097E0,1.065539455E1
1.501172293E0,9.636662155E-2,-4.672883034E0,8.898050308E0
1.503170054E0,1.634042710E-1,-4.759074211E0,1.044949341E1
1.505167814E0,1.969230920E-1,-4.443039894E0,8.945934296E0
1.507165575E0,1.107318252E-1,-4.663306236E0,1.008557510E1
1.509163335E0,1.777694821E-1,-4.601057053E0,1.018134308E1
1.511161096E0,5.327098817E-2,-4.763862610E0,9.961075783E0
1.513158856E0,1.107318252E-1,-4.184465885E0,9.084798813E0
1.515156616E0,6.284779310E-2,-4.227561474E0,9.491812706E0
1.517154377E0,1.298854351E-1,-4.447828293E0,1.045428181E1
1.519152189E0,2.454056777E-2,-4.308964729E0,9.405621529E0
1.521150054E0,4.848258570E-2,-4.184465885E0,1.061229897E1
1.523147971E0,6.763619930E-2,-4.069544315E0,8.883685112E0
1.525145939E0,-4.249707982E-2,-4.399944305E0,1.049737740E1
1.527143908E0,4.369417951E-2,-4.237138271E0,9.645041466E0
1.529141877E0,7.721300423E-2,-4.107851505E0,1.054526138E1
1.531139846E0,1.975216344E-2,-3.878008127E0,8.677783966E0
1.533137814E0,4.369417951E-2,-3.911526918E0,1.014782429E1
1.535135783E0,3.411737457E-2,-3.988141537E0,1.055962658E1
1.537133752E0,1.059434265E-1,-3.940257549E0,8.931569099E0
1.539131668E0,6.763619930E-2,-4.131793499E0,9.400833130E0
