"Time (s)","Acceleration x (m/s^2)","Acceleration y (m/s^2)","Acceleration z (m/s^2)"
1.886115400E-2,-1.430535465E-1,1.212064624E0,9.697713852E0
2.085797700E-2,-1.813607812E-1,1.154603720E0,9.678560257E0
2.285480000E-2,-2.053027898E-1,1.116296530E0,9.692925453E0
2.485157100E-2,-2.531868219E-1,1.125873327E0,9.697713852E0
2.684834100E-2,-3.058592677E-1,1.097142935E0,9.692925453E0
2.884511200E-2,-3.298012912E-1,1.121084929E0,9.688137054E0
3.084188300E-2,-3.633201122E-1,1.164180517E0,9.726444244E0
3.283865400E-2,-3.537433147E-1,1.240795016E0,9.755174637E0
3.483542500E-2,-3.776853085E-1,1.298255920E0,9.788693428E0
3.683219600E-2,-3.776853085E-1,1.370081902E0,9.846154213E0
3.882896600E-2,-3.681085110E-1,1.413177609E0,9.956287384E0
4.082573700E-2,-3.920505345E-1,1.537676096E0,1.006163311E1
4.282250800E-2,-4.303577542E-1,1.662174582E0,1.009994030E1
4.481927900E-2,-4.447229803E-1,1.757942557E0,1.011909389E1
4.681605000E-2,-4.542997777E-1,1.882441044E0,1.013824749E1
4.881282100E-2,-4.495113790E-1,1.925536752E0,1.016218948E1
5.080959100E-2,-4.495113790E-1,1.944690347E0,1.022443867E1
5.280636200E-2,-4.159925580E-1,1.959055543E0,1.027232265E1
5.480313300E-2,-3.824737072E-1,1.997362733E0,1.032978344E1
5.679990400E-2,-3.441664875E-1,2.011728048E0,1.036809063E1
5.879667500E-2,-3.872621357E-1,1.987785935E0,1.034893703E1
6.079344600E-2,-3.489548862E-1,1.963843942E0,1.035851383E1
6.279021600E-2,-3.154360652E-1,1.944690347E0,1.042555141E1
6.478698700E-2,-3.154360652E-1,1.939901948E0,1.039682102E1
6.678375800E-2,-3.202244639E-1,1.906383157E0,1.031541824E1
6.878052900E-2,-3.968389332E-1,1.824980259E0,1.028189945E1
7.077730000E-2,-4.255693555E-1,1.734000564E0,1.028189945E1
7.277407100E-2,-4.590881765E-1,1.695693374E0,1.032978344E1
7.477084100E-2,-4.782418013E-1,1.681328177E0,1.032499504E1
7.676761200E-2,-4.830302000E-1,1.686116576E0,1.026753426E1
7.876438300E-2,-4.782418013E-1,1.743577361E0,1.017176628E1
8.076115400E-2,-4.782418013E-1,1.781884670E0,1.009994030E1
8.275792500E-2,-4.590881765E-1,1.777096152E0,1.001374817E1
8.475469600E-2,-4.542997777E-1,1.796249866E0,9.994594574E0
8.675146600E-2,-3.920505345E-1,1.877652645E0,1.001374817E1
8.874823700E-2,-3.250128925E-1,1.925536752E0,9.989806175E0
9.074500800E-2,-2.771288455E-1,1.915959954E0,9.917980194E0
9.274183100E-2,-2.292448133E-1,1.824980259E0,9.879673004E0
9.473865400E-2,-1.957259923E-1,1.824980259E0,9.951498985E0
9.673547700E-2,-1.430535465E-1,1.796249866E0,9.932345390E0
9.873230000E-2,-9.516951442E-2,1.724423766E0,9.894038200E0
1.007291230E-1,-1.238999367E-1,1.657386184E0,9.874884605E0
1.027259460E-1,-6.165069342E-2,1.671751380E0,9.917980194E0
1.047227680E-1,-8.978256024E-3,1.757942557E0,9.817423820E0
1.067195910E-1,-5.207388848E-2,1.724423766E0,9.659406662E0
1.087164140E-1,-8.080431074E-2,1.657386184E0,9.616311073E0
1.107132370E-1,-8.559270948E-2,1.638232470E0,9.697713852E0
1.127100600E-1,-3.770867735E-2,1.714846969E0,9.745597839E0
1.147068830E-1,5.985504249E-4,1.777096152E0,9.707290649E0
1.167037060E-1,-8.978256024E-3,1.786673069E0,9.625887871E0
1.187005290E-1,-1.430535465E-1,1.643020868E0,9.563638687E0
1.206973520E-1,-1.622071713E-1,1.566406488E0,9.985017776E0
1.226941750E-1,-1.382651478E-1,1.671751380E0,1.018134308E1
1.246909980E-1,-1.286883354E-1,1.824980259E0,1.007120991E1
1.266878210E-1,-2.483984232E-1,1.729212165E0,9.865307808E0
1.286846430E-1,-3.776853085E-1,1.590348482E0,9.898826599E0
1.306814660E-1,-4.159925580E-1,1.666962981E0,1.022443867E1
1.326782890E-1,-3.681085110E-1,1.734000564E0,1.031541824E1
1.346751120E-1,-3.345896900E-1,1.820191860E0,1.019091988E1
1.366719350E-1,-3.489548862E-1,1.877652645E0,1.001374817E1
1.386687580E-1,-3.154360652E-1,1.954267144E0,9.908403397E0
1.406655810E-1,-3.489548862E-1,1.858499050E0,9.659406662E0
1.426624040E-1,-3.633201122E-1,1.738788962E0,9.788693428E0
1.446592270E-1,-1.717839688E-1,1.954267144E0,1.024838066E1
1.466560500E-1,-9.995792061E-2,1.896806240E0,9.889249802E0
1.486528730E-1,-8.080431074E-2,1.801038265E0,9.625887871E0
1.506496960E-1,-5.207388848E-2,1.695693374E0,9.850942612E0
1.526465180E-1,3.411737457E-2,1.748365760E0,9.932345390E0
1.546433410E-1,9.157821536E-2,1.729212165E0,9.702502251E0
1.566401640E-1,1.442506462E-1,1.738788962E0,9.664195061E0
1.586369870E-1,2.017114908E-1,1.729212165E0,9.611522675E0
1.606338100E-1,1.298854351E-1,1.465849996E0,9.357737541E0
1.626306330E-1,1.825578809E-1,1.604713678E0,9.630676270E0
1.646274560E-1,3.118447661E-1,1.690904975E0,9.688137054E0
1.666242790E-1,2.735375464E-1,1.523310781E0,9.166201591E0
1.686211020E-1,2.208651006E-1,1.384447098E0,9.166201591E0
1.706179250E-1,2.735375464E-1,1.432331204E0,9.558850288E0
1.726147480E-1,3.214215636E-1,1.456273198E0,9.587580681E0
1.746115710E-1,3.357867897E-1,1.470638394E0,9.415198326E0
1.766083930E-1,3.645172119E-1,1.614290476E0,9.506177902E0
1.786052160E-1,3.405751884E-1,1.552041292E0,9.348160744E0
1.806020390E-1,2.926911712E-1,1.523310781E0,9.453505516E0
1.825988620E-1,3.357867897E-1,1.710058570E0,9.807847023E0
1.845956850E-1,3.453635871E-1,1.805826664E0,9.831789017E0
1.865925080E-1,3.070563674E-1,1.777096152E0,9.625887871E0
1.885893310E-1,1.107318252E-1,1.643020868E0,9.491812706E0
1.905861540E-1,8.200141042E-2,1.681328177E0,9.793481827E0
1.925829770E-1,5.327098817E-2,1.628655672E0,9.956287384E0
1.945798000E-1,3.411737457E-2,1.609502077E0,9.716867447E0
1.965766230E-1,-4.728548229E-2,1.590348482E0,9.688137054E0
1.985734460E-1,-1.478419602E-1,1.341351509E0,9.477447510E0
2.005702680E-1,-2.005143911E-1,1.394023895E0,9.841365814E0
2.025670910E-1,-1.717839688E-1,1.465849996E0,9.903614998E0
2.045639140E-1,-2.292448133E-1,1.441908002E0,9.405621529E0
2.065607370E-1,-3.106476665E-1,1.279102206E0,9.410409927E0
2.085575600E-1,-3.298012912E-1,1.274313807E0,9.606734276E0
2.105543830E-1,-3.010708690E-1,1.403600693E0,9.587580681E0
2.125512060E-1,-2.819172442E-1,1.370081902E0,9.573215485E0
2.145480290E-1,-2.771288455E-1,1.264737010E0,9.271546364E0
2.165448520E-1,-2.675520480E-1,1.250371814E0,9.525331497E0
2.185416750E-1,-2.627636492E-1,1.173757434E0,9.664195061E0
2.205384980E-1,-1.909375787E-1,1.192911029E0,9.621099472E0
2.225353210E-1,-2.244564146E-1,1.010951638E0,9.463082314E0
2.245321430E-1,-2.819172442E-1,8.720879555E-1,9.329007149E0
2.265289660E-1,-2.627636492E-1,9.056068063E-1,9.664195061E0
2.285257890E-1,-2.053027898E-1,9.870096445E-1,9.702502251E0
2.305226120E-1,-1.957259923E-1,9.774328470E-1,9.338583946E0
2.325194350E-1,-2.053027898E-1,1.015740037E0,9.357737541E0
2.345162580E-1,-2.388216257E-1,9.534908533E-1,9.266757965E0
2.365130810E-1,-2.483984232E-1,9.822212458E-1,9.467870712E0
2.385099040E-1,-2.100912035E-1,9.965864420E-1,9.333795547E0
2.405067270E-1,-1.574187577E-1,1.125873327E0,9.506177902E0
2.425035500E-1,-1.334767491E-1,1.178545833E0,9.817423820E0
2.445003730E-1,-1.382651478E-1,1.106719732E0,9.573215485E0
2.464971960E-1,-8.080431074E-2,1.259948611E0,9.898826599E0
2.484940180E-1,-7.601590455E-2,1.398812294E0,9.961075783E0
2.504908410E-1,-9.038111567E-2,1.480215192E0,9.941922188E0
2.524876640E-1,-1.191115379E-1,1.470638394E0,9.961075783E0
2.544844870E-1,-1.526303589E-1,1.432331204E0,1.006642151E1
2.564813100E-1,-1.526303589E-1,1.379658699E0,1.002811337E1
2.584781330E-1,-1.622071713E-1,1.370081902E0,9.937133789E0
2.604749560E-1,-1.191115379E-1,1.422754407E0,1.021486187E1
2.624717790E-1,-8.559270948E-2,1.403600693E0,1.002332497E1
2.644686020E-1,-7.122749835E-2,1.413177609E0,9.855731010E0
2.664654250E-1,-8.978256024E-3,1.566406488E0,1.008557510E1
2.684622480E-1,4.369417951E-2,1.580771685E0,1.010472870E1
2.704590710E-1,-1.855506375E-2,1.465849996E0,1.001374817E1
2.724558930E-1,6.284779310E-2,1.729212165E0,1.002811337E1
2.744526640E-1,3.890577704E-2,1.599925280E0,9.764751434E0
2.764494350E-1,-8.978256024E-3,1.580771685E0,9.755174637E0
2.784462060E-1,-4.189853091E-3,1.499368787E0,9.999382973E0
2.804429770E-1,2.932897024E-2,1.542464495E0,9.850942612E0
2.824397480E-1,-8.978256024E-3,1.494580388E0,9.640253067E0
2.844365180E-1,-3.292027488E-2,1.518522382E0,9.640253067E0
2.864332890E-1,-3.770867735E-2,1.384447098E0,9.525331497E0
2.884300600E-1,5.386953708E-3,1.446696401E0,9.396044731E0
2.904268310E-1,-2.813187055E-2,1.226429820E0,9.515754700E0
2.924236020E-1,-4.189853091E-3,1.226429820E0,9.654618263E0
2.944203730E-1,-2.334346622E-2,1.106719732E0,9.400833130E0
2.964171430E-1,-5.686229095E-2,1.044470549E0,9.443928719E0
2.984139140E-1,5.985504249E-4,1.121084929E0,9.539696693E0
3.004106850E-1,-8.978256024E-3,1.049258947E0,9.266757965E0
3.024074560E-1,-4.249707982E-2,1.049258947E0,9.448717117E0
3.044042270E-1,-7.122749835E-2,1.130661726E0,9.668983459E0
3.064009980E-1,-1.286883354E-1,1.039682031E0,9.309853554E0
3.083977680E-1,-1.717839688E-1,1.125873327E0,9.668983459E0
3.103945390E-1,-1.765723825E-1,1.312621117E0,9.788693428E0
3.123913100E-1,-2.531868219E-1,1.317409515E0,9.419986725E0
3.143880810E-1,-3.106476665E-1,1.513733983E0,9.549273491E0
3.163848520E-1,-3.968389332E-1,1.384447098E0,9.654618263E0
3.183816230E-1,-4.351461530E-1,1.360505104E0,9.482235909E0
3.203783930E-1,-4.303577542E-1,1.331774712E0,9.424775124E0
3.223751640E-1,-4.303577542E-1,1.307832718E0,9.520543098E0
3.243719350E-1,-4.447229803E-1,1.255160213E0,9.348160744E0
3.263687060E-1,-4.542997777E-1,1.245583415E0,9.640253067E0
3.283654770E-1,-4.399345517E-1,1.255160213E0,9.846154213E0
3.303622480E-1,-3.345896900E-1,1.360505104E0,9.654618263E0
3.323590180E-1,-3.393780887E-1,1.374870300E0,9.692925453E0
3.343557890E-1,-3.728969097E-1,1.298255920E0,9.697713852E0
3.363525600E-1,-4.016273320E-1,1.288679123E0,9.961075783E0
3.383493310E-1,-3.393780887E-1,1.451484799E0,9.932345390E0
3.403461020E-1,-3.393780887E-1,1.465849996E0,9.894038200E0
3.423429250E-1,-3.393780887E-1,1.480215192E0,9.884461403E0
3.443397480E-1,-3.585317135E-1,1.427542806E0,9.673771858E0
3.463365710E-1,-3.489548862E-1,1.494580388E0,9.951498985E0
3.483333930E-1,-3.393780887E-1,1.475426793E0,9.621099472E0
3.503302160E-1,-3.250128925E-1,1.465849996E0,9.831789017E0
3.523270390E-1,-2.531868219E-1,1.508945584E0,9.850942612E0
3.543238620E-1,-1.957259923E-1,1.580771685E0,9.865307808E0
3.563206850E-1,-9.516951442E-2,1.705270171E0,9.850942612E0
3.583175080E-1,-1.047463268E-1,1.695693374E0,9.592369080E0
3.603143310E-1,-7.601590455E-2,1.719635367E0,9.616311073E0
3.623111540E-1,-6.165069342E-2,1.604713678E0,9.865307808E0
3.643079770E-1,-2.334346622E-2,1.571194887E0,9.822212219E0
3.663048000E-1,5.985504249E-4,1.619078875E0,9.688137054E0
3.683016230E-1,5.985504249E-4,1.623867273E0,9.649829865E0
3.702984460E-1,-6.643909961E-2,1.494580388E0,9.645041466E0
3.722952680E-1,-1.047463268E-1,1.437119603E0,9.501389503E0
3.742920910E-1,-1.334767491E-1,1.461061597E0,9.827000618E0
3.762889140E-1,-8.080431074E-2,1.552041292E0,9.860519409E0
3.782857370E-1,-1.047463268E-1,1.427542806E0,9.410409927E0
3.802825600E-1,-1.861491799E-1,1.197699428E0,9.515754700E0
3.822793830E-1,-1.478419602E-1,1.307832718E0,9.865307808E0
3.842762060E-1,-8.080431074E-2,1.355716705E0,9.769539833E0
3.862730290E-1,-1.047463268E-1,1.398812294E0,9.372102737E0
3.882698520E-1,-1.430535465E-1,1.389235497E0,9.568427086E0
3.902666750E-1,-1.574187577E-1,1.384447098E0,9.774328232E0
3.922634980E-1,-1.526303589E-1,1.298255920E0,9.664195061E0
3.942603210E-1,-1.813607812E-1,1.288679123E0,9.726444244E0
3.962571430E-1,-1.430535465E-1,1.417966008E0,9.731232643E0
3.982539660E-1,-1.478419602E-1,1.370081902E0,9.549273491E0
4.002507890E-1,-2.148796022E-1,1.216853023E0,9.597157478E0
4.022476120E-1,-2.244564146E-1,1.317409515E0,9.874884605E0
4.042444350E-1,-2.148796022E-1,1.365293503E0,9.855731010E0
4.062412580E-1,-2.675520480E-1,1.298255920E0,9.630676270E0
4.082380810E-1,-3.537433147E-1,1.341351509E0,9.635464668E0
4.102349040E-1,-3.824737072E-1,1.508945584E0,9.774328232E0
4.122317270E-1,-3.824737072E-1,1.777096152E0,1.011430550E1
4.142285500E-1,-4.016273320E-1,1.772307754E0,1.008557510E1
4.162253730E-1,-4.447229803E-1,1.628655672E0,9.999382973E0
4.182221960E-1,-5.021837950E-1,1.494580388E0,9.980229378E0
4.202190180E-1,-5.069721937E-1,1.604713678E0,9.836577415E0
4.222158410E-1,-5.740098357E-1,1.451484799E0,1.021007347E1
4.242126640E-1,-6.027402878E-1,1.226429820E0,1.030105305E1
4.262094870E-1,-5.357026458E-1,1.508945584E0,9.970652580E0
4.282063100E-1,-5.548562407E-1,1.537676096E0,9.841365814E0
4.302031330E-1,-6.027402878E-1,1.580771685E0,1.013345909E1
4.321999560E-1,-5.644330382E-1,1.748365760E0,9.999382973E0
4.341967790E-1,-5.787982345E-1,1.810615063E0,1.018613148E1
4.361936020E-1,-5.787982345E-1,1.968632340E0,1.009994030E1
4.381904250E-1,-5.979518890E-1,1.930325150E0,9.850942612E0
4.401872480E-1,-6.075286865E-1,1.920748353E0,9.951498985E0
4.421840710E-1,-5.835866928E-1,1.939901948E0,1.002332497E1
4.441808930E-1,-5.931634903E-1,1.834557056E0,9.779116631E0
4.461777160E-1,-5.979518890E-1,1.757942557E0,9.822212219E0
4.481745390E-1,-5.740098357E-1,1.566406488E0,9.807847023E0
4.501713620E-1,-5.979518890E-1,1.370081902E0,9.664195061E0
4.521681850E-1,-5.692214370E-1,1.283890605E0,9.659406662E0
4.541650080E-1,-4.926069975E-1,1.384447098E0,9.836577415E0
4.561618310E-1,-4.495113790E-1,1.384447098E0,9.601945877E0
4.581586540E-1,-4.351461530E-1,1.264737010E0,9.453505516E0
4.601554770E-1,-3.537433147E-1,1.389235497E0,9.860519409E0
4.621523000E-1,-2.436100245E-1,1.441908002E0,9.616311073E0
4.641491230E-1,-1.526303589E-1,1.441908002E0,9.702502251E0
4.661459460E-1,-8.080431074E-2,1.513733983E0,9.841365814E0
4.681427680E-1,-1.376665942E-2,1.643020868E0,9.539696693E0
4.701395910E-1,2.454056777E-2,1.643020868E0,9.649829865E0
4.721364140E-1,3.890577704E-2,1.556829691E0,9.578003883E0
4.741332370E-1,5.805939063E-2,1.408389091E0,9.903614998E0
4.761300600E-1,8.678980917E-2,1.532887697E0,9.855731010E0
4.781268830E-1,4.848258570E-2,1.413177609E0,9.664195061E0
4.801237060E-1,1.017535757E-2,1.499368787E0,9.788693428E0
4.821205290E-1,-1.376665942E-2,1.580771685E0,9.736021042E0
4.841173520E-1,-7.601590455E-2,1.671751380E0,9.463082314E0
4.861141750E-1,-1.238999367E-1,1.762730956E0,9.482235909E0
4.881109980E-1,-1.861491799E-1,1.705270171E0,9.822212219E0
4.901078210E-1,-2.340332121E-1,1.844133854E0,9.822212219E0
4.921046430E-1,-2.914940715E-1,1.853710651E0,9.549273491E0
4.941014660E-1,-3.585317135E-1,1.791461468E0,9.563638687E0
4.960982890E-1,-3.968389332E-1,1.738788962E0,9.745597839E0
4.980951120E-1,-4.878185987E-1,1.456273198E0,9.779116631E0
5.000919350E-1,-5.548562407E-1,1.183334231E0,9.688137054E0
5.020887580E-1,-5.740098357E-1,1.087566137E0,9.640253067E0
5.040855810E-1,-5.835866928E-1,8.385691643E-1,1.013824749E1
5.060824040E-1,-6.075286865E-1,4.171896577E-1,9.879673004E0
5.080792270E-1,-6.458359361E-1,3.405751884E-1,9.721655846E0
5.100760500E-1,-7.416039705E-1,7.721300423E-2,9.539696693E0
5.120728730E-1,-8.469488621E-1,1.346738487E-1,9.506177902E0
5.140696960E-1,-9.522937536E-1,-8.978256024E-3,9.534908295E0
5.160665180E-1,-1.014542937E0,3.070563674E-1,9.640253067E0
5.180633410E-1,-1.086369038E0,4.842272997E-1,9.697713852E0
5.200601640E-1,-1.162983418E0,6.278793812E-1,9.482235909E0
5.220569350E-1,-1.119887829E0,1.173757434E0,9.779116631E0
5.240537060E-1,-1.110311031E0,1.652597666E0,9.544485092E0
5.260504770E-1,-1.172560334E0,1.513733983E0,9.798270226E0
5.280472480E-1,-1.124676228E0,1.269525409E0,9.659406662E0
5.300440180E-1,-1.143829823E0,8.912416101E-1,9.779116631E0
5.320407890E-1,-1.134253025E0,2.735375464E-1,9.807847023E0
5.340375600E-1,-1.143829823E0,2.591723204E-1,9.520543098E0
5.360343310E-1,-1.105522633E0,5.327098817E-2,9.707290649E0
5.380311020E-1,-1.038484931E0,1.825578809E-1,9.807847023E0
5.400278730E-1,-8.996213078E-1,6.135141850E-1,9.937133789E0
5.420246430E-1,-8.756792545E-1,6.709750295E-1,9.841365814E0
5.440214140E-1,-7.751228213E-1,9.199720025E-1,1.039682102E1
5.460181850E-1,-7.128735781E-1,1.068412542E0,1.041597462E1
5.480149560E-1,-6.697779298E-1,1.197699428E0,1.006163311E1
5.500117270E-1,-7.080851793E-1,8.768763542E-1,9.822212219E0
5.520084980E-1,-7.224503756E-1,9.103952050E-1,1.032978344E1
5.540052680E-1,-7.368155718E-1,7.571662664E-1,1.045428181E1
5.560020390E-1,-7.703344226E-1,7.858967185E-1,1.030584145E1
5.579988100E-1,-7.990648150E-1,6.422445774E-1,1.034414864E1
5.599955810E-1,-8.325836658E-1,6.566098332E-1,1.031062984E1
5.619923520E-1,-8.661024570E-1,7.906851172E-1,1.038724422E1
5.639891230E-1,-8.613140583E-1,1.010951638E0,1.015261269E1
5.659858930E-1,-8.134300113E-1,1.245583415E0,1.008078671E1
5.679826640E-1,-7.463923693E-1,1.326986313E0,1.040160942E1
5.699794350E-1,-7.751228213E-1,9.008184075E-1,1.022922707E1
5.719762060E-1,-8.038532138E-1,5.416881442E-1,9.961075783E0
5.739729770E-1,-7.463923693E-1,8.577227592E-1,1.004726696E1
5.759697480E-1,-7.176619768E-1,8.720879555E-1,1.006163311E1
5.779665180E-1,-7.224503756E-1,6.087257862E-1,9.798270226E0
5.799632890E-1,-6.314706802E-1,8.337807655E-1,1.014782429E1
5.819600600E-1,-6.075286865E-1,9.103952050E-1,9.951498985E0
5.839568310E-1,-6.362590790E-1,8.577227592E-1,9.554061890E0
5.859536020E-1,-6.314706802E-1,7.236474752E-1,9.865307808E0
5.879503730E-1,-5.404910445E-1,1.207276225E0,1.018134308E1
5.899471960E-1,-5.117605925E-1,1.063624144E0,9.755174637E0
5.919440180E-1,-4.973953962E-1,1.068412542E0,9.664195061E0
5.939408410E-1,-4.495113790E-1,9.295488000E-1,9.865307808E0
5.959376640E-1,-4.016273320E-1,1.039682031E0,9.692925453E0
5.979344870E-1,-3.776853085E-1,9.726444483E-1,9.736021042E0
5.999313100E-1,-3.010708690E-1,1.030105233E0,9.874884605E0
6.019281330E-1,-2.819172442E-1,1.149815321E0,9.673771858E0
6.039249560E-1,-2.388216257E-1,1.695693374E0,9.879673004E0
6.059217790E-1,-1.765723825E-1,1.743577361E0,9.922768593E0
6.079186020E-1,-1.382651478E-1,1.757942557E0,9.635464668E0
6.099154250E-1,-1.430535465E-1,1.489791989E0,9.415198326E0
6.119122480E-1,-1.526303589E-1,1.417966008E0,9.678560257E0
6.139090710E-1,-1.238999367E-1,1.197699428E0,9.558850288E0
6.159058930E-1,-7.122749835E-2,1.087566137E0,9.558850288E0
6.179027160E-1,-7.122749835E-2,9.726444483E-1,9.199720383E0
6.198995390E-1,-9.995792061E-2,8.002619147E-1,9.065644264E0
6.218963620E-1,-1.047463268E-1,6.901286244E-1,9.132682800E0
6.238931850E-1,-7.601590455E-2,6.709750295E-1,9.180566788E0
6.258900080E-1,-6.165069342E-2,7.571662664E-1,9.123106003E0
6.278868310E-1,5.386953708E-3,8.481459618E-1,9.309853554E0
6.298836540E-1,2.932897024E-2,8.242039084E-1,8.979453087E0
6.318804770E-1,1.017535757E-2,1.006163239E0,9.022548676E0
6.338773000E-1,1.975216344E-2,9.917980433E-1,9.295488358E0
6.358741230E-1,5.386953708E-3,8.720879555E-1,9.343372345E0
6.378709460E-1,1.017535757E-2,9.917980433E-1,9.357737541E0
6.398677680E-1,1.975216344E-2,1.001374841E0,9.281123161E0
6.418645910E-1,-2.334346622E-2,8.912416101E-1,9.261969566E0
6.438614140E-1,5.386953708E-3,1.106719732E0,9.266757965E0
6.458582370E-1,5.386953708E-3,1.231218219E0,9.419986725E0
6.478550600E-1,5.386953708E-3,1.303044319E0,9.506177902E0
6.498518830E-1,-1.855506375E-2,1.164180517E0,9.285911560E0
6.518487060E-1,-4.728548229E-2,1.312621117E0,9.094375610E0
6.538455290E-1,-7.122749835E-2,1.140238523E0,9.281123161E0
6.558423520E-1,-9.995792061E-2,1.030105233E0,9.041702271E0
6.578391750E-1,-1.143231317E-1,1.145026922E0,9.161413193E0
6.598359980E-1,-1.143231317E-1,9.534908533E-1,9.333795547E0
6.618328210E-1,-1.047463268E-1,1.279102206E0,9.127894402E0
6.638296430E-1,-1.478419602E-1,1.135450125E0,8.907627106E0
6.658264660E-1,-2.196680009E-1,1.077989340E0,9.041702271E0
6.678232890E-1,-2.436100245E-1,9.917980433E-1,9.209297180E0
6.698201120E-1,-2.962824702E-1,1.044470549E0,9.113529205E0
6.718169350E-1,-3.393780887E-1,1.212064624E0,9.400833130E0
6.738137580E-1,-3.728969097E-1,1.255160213E0,9.142259598E0
6.758105810E-1,-4.878185987E-1,1.140238523E0,8.778340340E0
6.778074040E-1,-4.734533727E-1,1.058835745E0,9.185355186E0
6.798042270E-1,-3.968389332E-1,1.614290476E0,9.233239174E0
6.818010500E-1,-4.590881765E-1,1.178545833E0,9.003395081E0
6.837978730E-1,-4.159925580E-1,1.441908002E0,9.276334763E0
6.857946960E-1,-3.681085110E-1,1.518522382E0,9.434351921E0
6.877915180E-1,-3.537433147E-1,1.523310781E0,9.218873978E0
6.897883410E-1,-3.250128925E-1,1.528099179E0,9.506177902E0
6.917851640E-1,-2.579752207E-1,1.710058570E0,9.683348656E0
6.937819870E-1,-2.771288455E-1,1.729212165E0,9.549273491E0
6.957788100E-1,-2.483984232E-1,1.638232470E0,9.525331497E0
6.977756330E-1,-2.100912035E-1,1.662174582E0,9.697713852E0
6.997724560E-1,-1.909375787E-1,1.906383157E0,9.755174637E0
7.017692790E-1,-1.813607812E-1,1.781884670E0,9.769539833E0
7.037661020E-1,-1.382651478E-1,1.939901948E0,9.769539833E0
7.057629250E-1,-1.717839688E-1,1.801038265E0,9.606734276E0
7.077597480E-1,-1.765723825E-1,1.671751380E0,9.874884605E0
7.097565710E-1,-1.095347255E-1,1.609502077E0,1.012388229E1
7.117533930E-1,-7.601590455E-2,1.465849996E0,1.014303589E1
7.137502160E-1,-8.080431074E-2,1.489791989E0,1.001853657E1
7.157470390E-1,-1.095347255E-1,1.461061597E0,9.994594574E0
7.177438620E-1,-1.047463268E-1,1.451484799E0,1.020049667E1
7.197406850E-1,8.242039084E-1,2.454056777E-2,1.468723011E1
7.217375080E-1,-2.244564146E-1,-3.561973572E0,2.732861519E1
7.237343310E-1,-6.649895310E-1,-1.177348733E0,7.892486095E0
7.257311540E-1,-8.469488621E-1,1.365293503E0,1.637753677E1
7.277279770E-1,-1.162983418E0,4.678868771E0,7.758410454E0
7.297248000E-1,-1.479018092E0,5.492897034E0,5.416881561E0
7.317216230E-1,-1.445499301E0,3.318962097E0,1.109592819E1
7.337184460E-1,-1.440710902E0,2.097919226E0,1.242231560E1
7.357152680E-1,-1.684919477E0,1.614290476E0,1.022443867E1
7.377120910E-1,-1.732803464E0,1.312621117E0,9.573215485E0
7.397089140E-1,-1.512536883E0,1.183334231E0,9.012971878E0
7.417057370E-1,-1.311424017E0,1.350928307E0,8.184578896E0
7.437025600E-1,-9.618705511E-1,8.768763542E-1,8.888473511E0
7.456993830E-1,-4.495113790E-1,6.763619930E-2,1.049737740E1
7.476962060E-1,-9.516951442E-2,-3.345896900E-1,1.134971333E1
7.496930290E-1,1.346738487E-1,2.352303118E-1,9.865307808E0
7.516898520E-1,2.974795699E-1,4.985924959E-1,9.218873978E0
7.536866750E-1,4.363432527E-1,3.070563674E-1,9.606734276E0
7.556834980E-1,3.884592354E-1,4.369417951E-2,9.860519409E0
7.576803210E-1,3.262099922E-1,1.298854351E-1,9.578003883E0
7.596771430E-1,2.926911712E-1,1.490390599E-1,9.736021042E0
7.616739660E-1,2.687491477E-1,4.842272997E-1,9.228450775E0
7.636707890E-1,2.687491477E-1,3.788824081E-1,9.932345390E0
7.656676120E-1,3.070563674E-1,3.166331649E-1,9.951498985E0
7.676644350E-1,2.448071241E-1,4.507084787E-1,9.779116631E0
7.696612060E-1,2.064998895E-1,7.619546652E-1,9.922768593E0
7.716579770E-1,1.059434265E-1,7.380126715E-1,1.006163311E1
7.736547480E-1,6.284779310E-2,1.001374841E0,9.419986725E0
7.756515180E-1,-7.601590455E-2,9.630676508E-1,9.482235909E0
7.776482890E-1,-1.717839688E-1,1.006163239E0,9.549273491E0
7.796450600E-1,-2.148796022E-1,7.906851172E-1,1.015740108E1
7.816418310E-1,-2.962824702E-1,7.906851172E-1,9.257181168E0
7.836386020E-1,-3.202244639E-1,6.087257862E-1,9.788693428E0
7.856353730E-1,-3.633201122E-1,4.076128304E-1,1.037287903E1
7.876321430E-1,-3.776853085E-1,7.044938207E-1,9.745597839E0
7.896289140E-1,-4.064157307E-1,9.056068063E-1,9.520543098E0
7.916256850E-1,-4.495113790E-1,7.954735160E-1,9.472659111E0
7.936224560E-1,-4.447229803E-1,4.124012291E-1,1.018134308E1
7.956192270E-1,-4.495113790E-1,5.656301379E-1,1.015261269E1
7.976159980E-1,-5.165489912E-1,6.709750295E-1,9.333795547E0
7.996127680E-1,-5.309142470E-1,6.805518270E-1,9.530119896E0
8.016095390E-1,-5.644330382E-1,5.033808947E-1,9.664195061E0
8.036063100E-1,-5.404910445E-1,3.740940094E-1,9.803058624E0
8.056030810E-1,-5.357026458E-1,2.639607489E-1,9.630676270E0
8.075998520E-1,-5.069721937E-1,2.879027426E-1,9.630676270E0
8.095966230E-1,-4.782418013E-1,2.160767019E-1,1.010951710E1
8.115933930E-1,-4.351461530E-1,2.256535143E-1,1.001853657E1
8.135901640E-1,-4.112041295E-1,2.974795699E-1,1.031062984E1
8.155869350E-1,-4.064157307E-1,4.985924959E-1,9.405621529E0
8.175837060E-1,-4.255693555E-1,6.709750295E-1,9.161413193E0
8.195804770E-1,-4.016273320E-1,6.901286244E-1,8.874108315E0
8.215772480E-1,-2.867056429E-1,2.208651006E-1,1.031062984E1
8.235740180E-1,-1.813607812E-1,2.591723204E-1,1.006163311E1
8.255707890E-1,-1.957259923E-1,-4.728548229E-2,1.087087250E1
8.275675600E-1,-2.244564146E-1,3.501519859E-1,8.984241486E0
8.295643310E-1,-2.148796022E-1,3.980360329E-1,9.592369080E0
8.315611020E-1,-1.382651478E-1,5.081692934E-1,9.434351921E0
8.335578730E-1,-9.516951442E-2,2.208651006E-1,9.453505516E0
8.355546430E-1,-1.855506375E-2,-1.669955701E-1,1.006642151E1
8.375514660E-1,1.975216344E-2,2.064998895E-1,9.764751434E0
8.395482890E-1,8.200141042E-2,2.591723204E-1,1.006642151E1
8.415451120E-1,6.284779310E-2,5.464765429E-1,9.266757965E0
8.435419350E-1,1.155202314E-1,2.831143439E-1,9.980229378E0
8.455387580E-1,5.805939063E-2,2.064998895E-1,9.956287384E0
8.475355810E-1,-2.813187055E-2,1.538274586E-1,9.649829865E0
8.495324040E-1,-4.249707982E-2,-3.770867735E-2,1.011909389E1
8.515292270E-1,-7.601590455E-2,-2.813187055E-2,9.664195061E0
8.535260500E-1,-1.957259923E-1,3.501519859E-1,8.878896713E0
8.555228730E-1,-1.669955701E-1,3.411737457E-2,1.072722054E1
8.575196960E-1,-2.627636492E-1,3.453635871E-1,9.578003883E0
8.595165180E-1,-3.681085110E-1,2.974795699E-1,9.827000618E0
8.615133410E-1,-3.776853085E-1,2.639607489E-1,9.850942612E0
8.635101640E-1,-5.213374496E-1,3.980360329E-1,8.902838707E0
8.655069870E-1,-5.117605925E-1,9.157821536E-2,9.965864182E0
8.675038100E-1,-4.399345517E-1,-2.627636492E-1,1.001853657E1
8.695006330E-1,-4.112041295E-1,-4.255693555E-1,1.009994030E1
8.714974560E-1,-3.968389332E-1,-1.334767491E-1,1.023880386E1
8.734942790E-1,-3.585317135E-1,-2.867056429E-1,9.740809441E0
8.754911020E-1,-3.681085110E-1,-8.559270948E-2,9.127894402E0
8.774879250E-1,-3.728969097E-1,1.155202314E-1,9.084798813E0
8.794847480E-1,-3.298012912E-1,-2.292448133E-1,9.721655846E0
8.814815710E-1,-2.244564146E-1,-5.021837950E-1,9.908403397E0
8.834783930E-1,-1.286883354E-1,-8.038532138E-1,1.031062984E1
8.854752160E-1,-7.122749835E-2,-3.010708690E-1,1.017655468E1
8.874720390E-1,-8.080431074E-2,4.890156984E-1,8.907627106E0
8.894688620E-1,-8.559270948E-2,3.214215636E-1,9.218873978E0
8.914656850E-1,1.496376097E-2,-1.622071713E-1,1.017176628E1
8.934625080E-1,1.107318252E-1,-4.399345517E-1,1.086129570E1
8.954593310E-1,3.890577704E-2,-6.165069342E-2,9.525331497E0
8.974561540E-1,1.975216344E-2,3.118447661E-1,9.142259598E0
8.994529770E-1,4.369417951E-2,4.746504724E-1,9.238027573E0
9.014498000E-1,5.805939063E-2,1.203086376E-1,9.664195061E0
9.034466230E-1,1.490390599E-1,-3.106476665E-1,1.029147625E1
9.054434460E-1,1.921346933E-1,-4.303577542E-1,1.057399178E1
9.074402680E-1,1.203086376E-1,-2.196680009E-1,9.980229378E0
9.094370910E-1,4.369417951E-2,4.698620737E-1,8.514978409E0
9.114339140E-1,1.059434265E-1,5.081692934E-1,9.065644264E0
9.134307370E-1,1.586158574E-1,-3.824737072E-1,1.076552773E1
9.154275600E-1,7.242459804E-2,-1.861491799E-1,9.659406662E0
9.174243830E-1,8.200141042E-2,-3.489548862E-1,9.961075783E0
9.194212060E-1,1.203086376E-1,-4.351461530E-1,9.654618263E0
9.214180290E-1,8.678980917E-2,-3.292027488E-2,9.578003883E0
9.234148520E-1,5.805939063E-2,-4.189853091E-3,9.175778389E0
9.254116750E-1,8.678980917E-2,-6.643909961E-2,9.568427086E0
9.274084980E-1,1.155202314E-1,-5.021837950E-1,1.020049667E1
9.294053210E-1,9.636662155E-2,-5.404910445E-1,1.009036350E1
9.314021430E-1,7.242459804E-2,-4.255693555E-1,9.980229378E0
9.333989660E-1,5.327098817E-2,-1.238999367E-1,9.692925453E0
9.353957890E-1,-1.855506375E-2,3.022679687E-1,9.099164009E0
9.373926120E-1,2.932897024E-2,-5.686229095E-2,1.034893703E1
9.393894350E-1,-8.978256024E-3,-6.165069342E-2,9.209297180E0
9.413862580E-1,1.496376097E-2,-6.458359361E-1,1.048780060E1
9.433830810E-1,5.985504249E-4,-8.852560520E-1,9.419986725E0
9.453799040E-1,-8.559270948E-2,-7.032967210E-1,9.305065155E0
9.473767270E-1,-2.334346622E-2,-8.469488621E-1,1.034414864E1
9.493735500E-1,-3.292027488E-2,-6.985083222E-1,9.410409927E0
9.513703730E-1,-4.249707982E-2,-1.028908134E0,1.001374817E1
9.533671960E-1,-3.292027488E-2,-8.373720646E-1,9.831789017E0
9.553640180E-1,-4.249707982E-2,-8.661024570E-1,1.009515190E1
9.573608410E-1,-3.770867735E-2,-4.064157307E-1,1.005205631E1
9.593576640E-1,-1.376665942E-2,-5.452794433E-1,9.908403397E0
9.613544870E-1,-7.601590455E-2,-4.782418013E-1,9.319430351E0
9.633513100E-1,-9.038111567E-2,-4.590881765E-1,9.750386238E0
9.653481330E-1,-3.770867735E-2,-8.182184100E-1,9.716867447E0
9.673449560E-1,-3.770867735E-2,-7.751228213E-1,9.458293915E0
9.693417790E-1,1.107318252E-1,-9.139865041E-1,1.049258900E1
9.713386020E-1,1.777694821E-1,-6.458359361E-1,9.922768593E0
9.733354250E-1,1.921346933E-1,-5.787982345E-1,9.501389503E0
9.753322480E-1,2.304419130E-1,-2.053027898E-1,9.630676270E0
9.773290710E-1,2.543839216E-1,-2.053027898E-1,9.257181168E0
9.793258930E-1,3.262099922E-1,-4.542997777E-1,9.654618263E0
9.813227160E-1,4.076128304E-1,-8.565256596E-1,1.030105305E1
9.833195390E-1,4.459200799E-1,-1.119887829E0,9.865307808E0
9.853163620E-1,3.501519859E-1,-5.548562407E-1,9.223662376E0
9.873131850E-1,3.788824081E-1,-6.602011323E-1,9.726444244E0
9.893100080E-1,3.645172119E-1,-6.171054840E-1,9.314641953E0
9.913068310E-1,3.788824081E-1,-9.475052953E-1,1.056441498E1
9.933036540E-1,3.740940094E-1,-9.379284978E-1,9.779116631E0
9.953004770E-1,3.070563674E-1,-6.602011323E-1,9.530119896E0
9.972973000E-1,2.448071241E-1,-7.272387743E-1,1.009994030E1
9.992941230E-1,1.634042710E-1,-9.235633016E-1,1.006163311E1
1.001290946E0,9.636662155E-2,-8.325836658E-1,9.716867447E0
1.003287768E0,8.678980917E-2,-7.463923693E-1,9.592369080E0
1.005284591E0,2.932897024E-2,-2.579752207E-1,8.965087891E0
1.007281414E0,8.200141042E-2,-7.272387743E-1,1.017176628E1
1.009278237E0,1.442506462E-1,-7.032967210E-1,9.985017776E0
1.011275060E0,8.678980917E-2,-6.027402878E-1,9.606734276E0
1.013271831E0,1.538274586E-1,-5.165489912E-1,9.554061890E0
1.015268602E0,1.729810685E-1,-6.793547273E-1,9.386467934E0
1.017265373E0,2.591723204E-1,-1.052850246E0,1.000417137E1
1.019262143E0,3.309983909E-1,-1.364096403E0,1.044949341E1
1.021258914E0,2.831143439E-1,-1.134253025E0,9.807847023E0
1.023255685E0,2.926911712E-1,-8.804676533E-1,9.597157478E0
1.025252456E0,3.214215636E-1,-8.182184100E-1,9.199720383E0
1.027249227E0,3.453635871E-1,-1.129464626E0,1.006163311E1
1.029245998E0,3.070563674E-1,-6.218938828E-1,9.314641953E0
1.031242768E0,4.076128304E-1,-1.411980510E0,1.064102936E1
1.033239539E0,3.357867897E-1,-1.038484931E0,9.324218750E0
1.035236310E0,3.309983909E-1,-9.331400990E-1,9.702502251E0
1.037233081E0,3.740940094E-1,-9.283517003E-1,9.937133789E0
1.039229852E0,3.453635871E-1,-9.187749028E-1,9.903614998E0
1.041226623E0,2.687491477E-1,-6.410474777E-1,9.238027573E0
1.043223393E0,3.022679687E-1,-1.062427044E0,1.038724422E1
1.045220164E0,2.783259451E-1,-8.277952671E-1,9.860519409E0
1.047216935E0,2.352303118E-1,-4.303577542E-1,9.372102737E0
1.049213706E0,2.639607489E-1,-7.655459642E-1,9.827000618E0
1.051210477E0,2.783259451E-1,-8.661024570E-1,9.625887871E0
1.053207248E0,2.687491477E-1,-7.607575655E-1,9.755174637E0
1.055204018E0,3.118447661E-1,-1.148618221E0,1.019091988E1
1.057200789E0,2.735375464E-1,-7.511807680E-1,9.175778389E0
1.059197560E0,2.735375464E-1,-1.024119735E0,9.889249802E0
1.061194331E0,2.831143439E-1,-1.095945835E0,9.855731010E0
1.063191102E0,2.304419130E-1,-1.273116708E0,1.006642151E1
1.065187873E0,2.543839216E-1,-1.239597917E0,1.004726696E1
1.067184643E0,1.586158574E-1,-1.143829823E0,9.501389503E0
1.069181414E0,1.059434265E-1,-1.072003841E0,9.362525940E0
1.071178185E0,1.155202314E-1,-1.067215443E0,9.568427086E0
1.073174956E0,1.011550203E-1,-1.273116708E0,9.386467934E0
1.075171727E0,1.729810685E-1,-1.699284673E0,1.041118622E1
1.077168498E0,2.064998895E-1,-1.378461599E0,9.290699959E0
1.079165268E0,2.831143439E-1,-1.550844193E0,1.015261269E1
1.081162091E0,3.501519859E-1,-1.162983418E0,9.515754700E0
1.083158914E0,4.028244317E-1,-1.450287700E0,1.009994030E1
1.085155737E0,4.171896577E-1,-1.158195019E0,9.592369080E0
1.087152560E0,4.842272997E-1,-1.378461599E0,1.032499504E1
1.089149383E0,4.554968774E-1,-1.220444322E0,9.448717117E0
1.091146206E0,3.740940094E-1,-1.043273449E0,9.357737541E0
1.093143029E0,4.267664552E-1,-1.009754539E0,1.012388229E1
1.095139852E0,3.788824081E-1,-8.996213078E-1,9.482235909E0
1.097136675E0,3.788824081E-1,-1.110311031E0,9.764751434E0
1.099133498E0,3.980360329E-1,-1.287482023E0,9.721655846E0
1.101130321E0,3.932476342E-1,-1.191713929E0,9.367314339E0
1.103127143E0,4.650736749E-1,-1.512536883E0,1.070327854E1
1.105123966E0,4.507084787E-1,-1.273116708E0,9.242815971E0
1.107120789E0,4.842272997E-1,-1.330577612E0,9.707290649E0
1.109117612E0,4.842272997E-1,-1.411980510E0,1.004726696E1
1.111114435E0,4.698620737E-1,-1.182137132E0,9.118317604E0
1.113111258E0,5.177460909E-1,-1.421557307E0,1.018613148E1
1.115108081E0,5.321113467E-1,-1.364096403E0,1.009036350E1
1.117104904E0,4.938040972E-1,-1.206079125E0,9.257181168E0
1.119101727E0,4.890156984E-1,-1.124676228E0,9.917980194E0
1.121098550E0,4.602852762E-1,-1.048061848E0,9.850942612E0
1.123095373E0,4.219780564E-1,-1.086369038E0,9.578003883E0
1.125092196E0,3.405751884E-1,-1.340154409E0,9.870096207E0
1.127089018E0,3.453635871E-1,-1.220444322E0,9.913191795E0
1.129085841E0,2.783259451E-1,-1.158195019E0,9.827000618E0
1.131082664E0,1.586158574E-1,-1.100734234E0,9.305065155E0
1.133079487E0,1.250970364E-1,-1.435922503E0,1.036809063E1
1.135076310E0,-9.038111567E-2,-1.847725153E0,9.089587212E0
1.137073133E0,1.873462796E-1,-1.378461599E0,9.463082314E0
1.139069956E0,1.634042710E-1,-1.177348733E0,1.010472870E1
1.141066779E0,1.155202314E-1,-8.565256596E-1,9.348160744E0
1.143063602E0,4.369417951E-2,-8.038532138E-1,1.056920338E1
1.145060425E0,-8.978256024E-3,-5.548562407E-1,9.645041466E0
1.147057248E0,-1.095347255E-1,-4.303577542E-1,9.463082314E0
1.149054071E0,-1.334767491E-1,-5.309142470E-1,1.021007347E1
1.151050893E0,-2.005143911E-1,-2.579752207E-1,9.400833130E0
1.153047716E0,-2.962824702E-1,-1.861491799E-1,9.731232643E0
1.155044539E0,-2.819172442E-1,-2.819172442E-1,9.496601105E0
1.157041362E0,-2.962824702E-1,-3.345896900E-1,9.683348656E0
1.159038185E0,-2.483984232E-1,-4.495113790E-1,1.003290176E1
1.161035008E0,-2.292448133E-1,-3.154360652E-1,9.295488358E0
1.163031831E0,-1.574187577E-1,-5.692214370E-1,1.003290176E1
1.165028654E0,-8.559270948E-2,-6.506243348E-1,1.035372543E1
1.167025477E0,-4.249707982E-2,-5.500678420E-1,9.621099472E0
1.169022300E0,5.386953708E-3,-7.032967210E-1,1.006642151E1
1.171019123E0,5.805939063E-2,-5.979518890E-1,9.065644264E0
1.173015946E0,7.721300423E-2,-7.320271730E-1,9.946710587E0
1.175012768E0,1.250970364E-1,-9.427168965E-1,1.050216579E1
1.177009591E0,1.298854351E-1,-9.714473486E-1,9.654618263E0
1.179006414E0,1.346738487E-1,-7.655459642E-1,9.530119896E0
1.181003237E0,1.681926697E-1,-8.517372608E-1,9.860519409E0
1.183000060E0,1.490390599E-1,-6.171054840E-1,9.477447510E0
1.184996883E0,2.352303118E-1,-1.076792240E0,1.093791008E1
1.186993706E0,2.400187254E-1,-6.506243348E-1,9.209297180E0
1.188990529E0,2.017114908E-1,-3.968389332E-1,9.300276756E0
1.190987352E0,2.831143439E-1,-6.314706802E-1,9.922768593E0
1.192984175E0,2.735375464E-1,-6.171054840E-1,9.238027573E0
1.194980998E0,2.974795699E-1,-5.883750916E-1,9.870096207E0
1.196977821E0,3.214215636E-1,-5.835866928E-1,1.000895977E1
1.198974643E0,3.022679687E-1,-5.261258483E-1,9.759963036E0
1.200971466E0,2.735375464E-1,-5.979518890E-1,9.841365814E0
1.202968289E0,2.687491477E-1,-4.159925580E-1,9.530119896E0
1.204965112E0,2.064998895E-1,-7.128735781E-1,1.014782429E1
1.206961935E0,2.208651006E-1,-5.165489912E-1,8.941145897E0
1.208958758E0,2.400187254E-1,-1.067215443E0,1.034414864E1
1.210955581E0,1.777694821E-1,-1.225232720E0,9.951498985E0
1.212952404E0,3.932476342E-1,-6.985083222E-1,9.798270226E0
1.214949227E0,4.411316514E-1,-6.554127336E-1,9.927556992E0
1.216946050E0,4.171896577E-1,-3.537433147E-1,8.936357498E0
1.218942873E0,4.124012291E-1,-6.554127336E-1,1.005684471E1
1.220939696E0,4.219780564E-1,-5.021837950E-1,1.033457184E1
1.222936518E0,3.693056107E-1,-3.154360652E-1,9.654618263E0
1.224933341E0,3.549404144E-1,-3.298012912E-1,9.803058624E0
1.226930164E0,3.309983909E-1,-3.106476665E-1,9.563638687E0
1.228926987E0,2.879027426E-1,-2.962824702E-1,9.606734276E0
1.230923810E0,2.591723204E-1,-2.723404467E-1,9.592369080E0
1.232920633E0,2.495955229E-1,-4.973953962E-1,1.024838066E1
1.234917456E0,2.208651006E-1,-3.920505345E-1,9.209297180E0
1.236914279E0,1.969230920E-1,-5.069721937E-1,9.946710587E0
1.238911102E0,2.160767019E-1,-2.005143911E-1,9.654618263E0
1.240907925E0,1.729810685E-1,-6.410474777E-1,1.067933655E1
1.242904748E0,1.538274586E-1,-3.393780887E-1,9.190143585E0
1.244901571E0,1.203086376E-1,-2.436100245E-1,9.803058624E0
1.246898393E0,1.011550203E-1,-1.095347255E-1,9.443928719E0
1.248895216E0,7.721300423E-2,-3.441664875E-1,1.043991661E1
1.250892039E0,1.975216344E-2,-3.776853085E-1,9.740809441E0
1.252888862E0,-7.601590455E-2,-4.159925580E-1,9.534908295E0
1.254885685E0,-5.686229095E-2,-4.734533727E-1,9.630676270E0
1.256882508E0,-6.165069342E-2,-4.159925580E-1,9.558850288E0
1.258879279E0,-3.292027488E-2,-5.404910445E-1,1.013824749E1
1.260876050E0,5.985504249E-4,-2.914940715E-1,9.477447510E0
1.262872821E0,2.454056777E-2,-3.250128925E-1,1.021007347E1
1.264869591E0,2.932897024E-2,-1.574187577E-1,9.850942612E0
1.266866362E0,5.327098817E-2,-2.914940715E-1,9.894038200E0
1.268863133E0,4.369417951E-2,-1.382651478E-1,9.170989990E0
1.270859904E0,2.454056777E-2,-8.559270948E-2,1.016697788E1
1.272856675E0,5.985504249E-4,-5.207388848E-2,9.214085579E0
1.274853446E0,-4.189853091E-3,-3.489548862E-1,1.045428181E1
1.276850216E0,5.386953708E-3,-2.579752207E-1,9.357737541E0
1.278846987E0,-2.813187055E-2,-4.255693555E-1,1.031062984E1
1.280843758E0,1.496376097E-2,-2.531868219E-1,9.199720383E0
1.282840529E0,2.454056777E-2,-3.250128925E-1,1.022443867E1
1.284837300E0,5.386953708E-3,-2.962824702E-1,9.544485092E0
1.286834071E0,5.327098817E-2,-3.633201122E-1,1.029626465E1
1.288830841E0,-1.855506375E-2,-5.596446395E-1,9.271546364E0
1.290827612E0,5.985504249E-4,-7.032967210E-1,9.582792282E0
1.292824383E0,1.873462796E-1,-2.292448133E-1,9.281123161E0
1.294821154E0,1.203086376E-1,-3.585317135E-1,9.946710587E0
1.296817925E0,2.932897024E-2,-7.463923693E-1,1.036809063E1
1.298814696E0,-4.249707982E-2,-4.973953962E-1,9.759963036E0
1.300811466E0,-1.957259923E-1,-5.261258483E-1,9.654618263E0
1.302808237E0,-3.058592677E-1,-1.717839688E-1,8.835801125E0
1.304805008E0,-3.968389332E-1,-8.038532138E-1,1.057878017E1
1.306801779E0,-5.165489912E-1,-4.638765752E-1,8.969876289E0
1.308798550E0,-5.500678420E-1,-1.014542937E0,1.090917969E1
1.310795321E0,-6.218938828E-1,-9.235633016E-1,9.405621529E0
1.312792091E0,-6.410474777E-1,-6.554127336E-1,1.033457184E1
1.314788862E0,-7.320271730E-1,-6.554127336E-1,9.170989990E0
1.316785633E0,-8.086416125E-1,-5.404910445E-1,9.874884605E0
1.318782404E0,-9.091981053E-1,-4.112041295E-1,9.348160744E0
1.320779175E0,-9.953893423E-1,-3.202244639E-1,9.439140320E0
1.322775946E0,-1.019331336E0,-7.416039705E-1,1.038245583E1
1.324772716E0,-1.162983418E0,-8.182184100E-1,9.736021042E0
1.326769539E0,-1.244386315E0,-8.565256596E-1,1.060751057E1
1.328766362E0,-1.210867524E0,-9.618705511E-1,8.945934296E0
1.330763185E0,-1.244386315E0,-9.427168965E-1,9.439140320E0
1.332760008E0,-1.177348733E0,-1.206079125E0,1.013345909E1
1.334756831E0,-1.143829823E0,-1.344942808E0,9.894038200E0
1.336753654E0,-1.086369038E0,-1.325789213E0,9.372102737E0
1.338750477E0,-9.666589499E-1,-1.206079125E0,9.621099472E0
1.340747300E0,-8.613140583E-1,-1.866878748E0,1.037287903E1
1.342744123E0,-7.703344226E-1,-1.641823769E0,9.151836395E0
1.344740946E0,-6.362590790E-1,-1.857301950E0,1.023880386E1
1.346737768E0,-5.500678420E-1,-1.838148355E0,9.726444244E0
1.348734591E0,-5.213374496E-1,-1.938704848E0,9.870096207E0
1.350731414E0,-4.830302000E-1,-2.135029316E0,1.000895977E1
1.352728237E0,-4.351461530E-1,-1.737591863E0,9.194931984E0
1.354725060E0,-4.399345517E-1,-2.460640907E0,1.024359226E1
1.356721883E0,-4.399345517E-1,-2.532466888E0,9.467870712E0
1.358718706E0,-4.016273320E-1,-2.652176857E0,1.024359226E1
1.360715529E0,-3.920505345E-1,-1.962646842E0,9.218873978E0
1.362712352E0,-3.489548862E-1,-2.321777105E0,1.042076302E1
1.364709175E0,-3.537433147E-1,-2.230797529E0,9.281123161E0
1.366705998E0,-3.154360652E-1,-2.149394512E0,9.774328232E0
1.368702821E0,-2.579752207E-1,-2.168548107E0,1.007599831E1
1.370699643E0,-2.771288455E-1,-1.981800437E0,9.352949142E0
1.372696466E0,-2.148796022E-1,-2.101510525E0,1.009515190E1
1.374693289E0,-1.669955701E-1,-1.656189084E0,9.372102737E0
1.376690112E0,-1.334767491E-1,-1.957858443E0,1.006163311E1
1.378686935E0,-2.531868219E-1,-2.115875721E0,9.372102737E0
1.380683758E0,-2.962824702E-1,-2.518101692E0,1.047343540E1
1.382680581E0,-3.681085110E-1,-2.345719099E0,9.309853554E0
1.384677404E0,-4.016273320E-1,-2.613869667E0,1.066497135E1
1.386674227E0,-3.968389332E-1,-2.733579874E0,9.726444244E0
1.388671050E0,-4.255693555E-1,-2.340930700E0,9.080010414E0
1.390667873E0,-3.776853085E-1,-2.680907249E0,1.014782429E1
1.392664696E0,-3.106476665E-1,-2.791040659E0,9.252392769E0
1.394661518E0,-1.813607812E-1,-2.690484047E0,1.049258900E1
1.396658341E0,-5.207388848E-2,-2.781463861E0,1.027232265E1
1.398655164E0,-4.189853091E-3,-2.724003077E0,9.836577415E0
1.400651987E0,1.011550203E-1,-2.781463861E0,9.961075783E0
1.402648810E0,1.777694821E-1,-2.786252260E0,9.544485092E0
1.404645633E0,2.926911712E-1,-2.877231836E0,9.190143585E0
1.406642456E0,3.501519859E-1,-2.891597033E0,9.381679535E0
1.408639279E0,4.650736749E-1,-3.293823004E0,1.025795746E1
1.410636102E0,5.608417392E-1,-3.605069160E0,9.965864182E0
1.412632925E0,5.368997455E-1,-3.298611403E0,9.333795547E0
1.414629748E0,6.230909824E-1,-3.581127167E0,1.079425812E1
1.416626571E0,5.895721912E-1,-3.734356165E0,8.898050308E0
1.418623393E0,5.081692934E-1,-3.815758944E0,9.870096207E0
1.420620216E0,5.321113467E-1,-3.925892353E0,9.999382973E0
1.422617039E0,3.980360329E-1,-3.921103716E0,9.118317604E0
1.424613862E0,4.028244317E-1,-4.074332714E0,1.002811337E1
1.426610685E0,3.262099922E-1,-4.213196278E0,1.036809063E1
1.428607508E0,2.495955229E-1,-4.227561474E0,9.975440979E0
1.430604331E0,2.160767019E-1,-3.734356165E0,8.826224327E0
1.432601154E0,1.873462796E-1,-3.767874956E0,9.463082314E0
1.434597977E0,1.729810685E-1,-3.983353138E0,9.994594574E0
1.436594800E0,2.304419130E-1,-4.414309502E0,1.067933655E1
1.438591623E0,3.070563674E-1,-4.280233860E0,1.023401546E1
1.440588446E0,3.214215636E-1,-3.447052002E0,9.017760277E0
1.442585268E0,5.225345492E-1,-1.579574585E0,7.667430878E0
1.444582091E0,2.304419130E-1,-7.416039705E-1,6.811503768E-1
1.446578914E0,2.687491477E-1,-1.541267395E0,1.337161660E0
1.448575737E0,4.219780564E-1,-2.067991734E0,4.588487625E0
1.450572560E0,6.901286244E-1,-2.949058056E0,7.542932510E0
1.452569383E0,9.343371987E-1,-3.858854532E0,9.850942612E0
1.454566206E0,1.240795016E0,-4.739920616E0,1.099537086E1
1.456563029E0,-1.526303589E-1,-7.316082001E0,8.189367294E0
1.458559852E0,1.465849996E0,-5.846042156E0,1.434246540E1
1.460556675E0,1.892017841E0,-6.549937248E0,2.887048149E1
1.462553498E0,1.700481772E0,-6.123769283E0,1.597052288E1
1.464550321E0,1.513733983E0,-3.839700937E0,1.084693050E1
1.466547143E0,1.221641421E0,-4.179677486E0,1.216374207E1
1.468543966E0,4.890156984E-1,-4.466981888E0,1.092354488E1
1.470540789E0,1.634042710E-1,-3.633799553E0,8.936357498E0
1.472537612E0,-4.249707982E-2,-2.580350876E0,7.375338554E0
1.474534435E0,-2.627636492E-1,-2.221220732E0,6.455965042E0
1.476531258E0,-3.345896900E-1,-2.374449492E0,7.332242489E0
1.478528081E0,-2.579752207E-1,-2.762310266E0,7.815871239E0
1.480524904E0,-1.191115379E-1,-3.092710018E0,8.582015991E0
1.482521727E0,-7.601590455E-2,-3.542819977E0,9.812635422E0
1.484518550E0,5.805939063E-2,-3.681683779E0,9.779116631E0
1.486515373E0,2.017114908E-1,-4.002506733E0,1.058835697E1
1.488512196E0,2.017114908E-1,-4.227561474E0,1.109592819E1
1.490509018E0,1.538274586E-1,-4.285022259E0,1.069849014E1
1.492505841E0,1.681926697E-1,-4.275445461E0,1.084214211E1
1.494502664E0,1.777694821E-1,-4.146158695E0,1.004726696E1
1.496499487E0,1.969230920E-1,-4.007295132E0,9.740809441E0
1.498496310E0,2.543839216E-1,-3.916315317E0,9.855731010E0
1.500493133E0,2.687491477E-1,-3.705625772E0,9.448717117E0
1.502489904E0,2.639607489E-1,-3.399167776E0,9.376891136E0
1.504486675E0,2.543839216E-1,-3.212420225E0,9.482235909E0
1.506483446E0,2.591723204E-1,-3.030460835E0,9.352949142E0
1.508480216E0,2.304419130E-1,-3.006518841E0,9.515754700E0
1.510476987E0,2.208651006E-1,-2.891597033E0,9.759963036E0
1.512473758E0,1.921346933E-1,-2.810194254E0,9.558850288E0
1.514470529E0,2.017114908E-1,-2.690484047E0,9.558850288E0
1.516467300E0,1.777694821E-1,-2.834136248E0,1.015740108E1
1.518464071E0,1.825578809E-1,-2.800617456E0,9.874884605E0
1.520460841E0,1.777694821E-1,-2.781463861E0,9.831789017E0
1.522457612E0,1.921346933E-1,-2.838924646E0,1.004726696E1
1.524454383E0,2.112883031E-1,-2.915539026E0,9.980229378E0
1.526451154E0,1.729810685E-1,-3.001730442E0,1.001374817E1
1.528447925E0,1.203086376E-1,-3.059191227E0,9.961075783E0
1.530444696E0,8.678980917E-2,-3.073556423E0,9.712079048E0
1.532441466E0,5.985504249E-4,-3.087921619E0,9.702502251E0
1.534438237E0,5.985504249E-4,-3.217208624E0,9.788693428E0
1.536435008E0,-5.207388848E-2,-3.308188200E0,1.000417137E1
1.538431779E0,-4.249707982E-2,-3.269881010E0,9.597157478E0
1.540428550E0,-2.813187055E-2,-3.198055029E0,9.515754700E0
