"Time (s)","Acceleration x (m/s^2)","Acceleration y (m/s^2)","Acceleration z (m/s^2)"
2.309875500E-2,2.017114908E-1,-3.441664875E-1,9.525331497E0
2.509495200E-2,1.586158574E-1,-3.154360652E-1,9.525331497E0
2.709115000E-2,1.825578809E-1,-3.393780887E-1,9.549273491E0
2.908734800E-2,1.873462796E-1,-3.106476665E-1,9.563638687E0
3.108354600E-2,1.825578809E-1,-2.723404467E-1,9.525331497E0
3.307974400E-2,2.112883031E-1,-2.196680009E-1,9.419986725E0
3.507594200E-2,2.639607489E-1,-2.100912035E-1,9.352949142E0
3.707214000E-2,3.166331649E-1,-2.053027898E-1,9.348160744E0
3.906833800E-2,3.597288132E-1,-1.957259923E-1,9.261969566E0
4.106453600E-2,4.028244317E-1,-2.483984232E-1,9.271546364E0
4.306073400E-2,3.693056107E-1,-2.914940715E-1,9.271546364E0
4.505693200E-2,4.171896577E-1,-3.298012912E-1,9.285911560E0
4.705313000E-2,4.028244317E-1,-3.202244639E-1,9.300276756E0
4.904932700E-2,4.219780564E-1,-3.393780887E-1,9.271546364E0
5.104552500E-2,4.459200799E-1,-3.202244639E-1,9.252392769E0
5.304172300E-2,4.842272997E-1,-2.627636492E-1,9.199720383E0
5.503792100E-2,4.602852762E-1,-2.436100245E-1,9.166201591E0
5.703411900E-2,4.507084787E-1,-1.430535465E-1,9.118317604E0
5.903031700E-2,3.597288132E-1,7.242459804E-2,9.118317604E0
6.102651500E-2,1.107318252E-1,1.149815321E0,9.185355186E0
6.302271300E-2,1.017535757E-2,1.465849996E0,8.984241486E0
6.501891100E-2,-4.249707982E-2,1.350928307E0,9.233239174E0
6.701510900E-2,-7.601590455E-2,1.240795016E0,9.458293915E0
6.901130700E-2,-1.238999367E-1,1.140238523E0,9.611522675E0
7.100750500E-2,-1.478419602E-1,1.034893632E0,9.688137054E0
7.300370200E-2,-1.717839688E-1,9.726444483E-1,9.779116631E0
7.499990000E-2,-1.813607812E-1,1.049258947E0,9.798270226E0
7.699609800E-2,-2.579752207E-1,1.135450125E0,9.841365814E0
7.899229600E-2,-3.250128925E-1,1.259948611E0,9.850942612E0
8.098849400E-2,-4.973953962E-1,1.350928307E0,9.946710587E0
8.298469200E-2,-1.014542937E0,1.767519355E0,1.005205631E1
8.498089000E-2,-1.028908134E0,1.997362733E0,9.793481827E0
8.697708800E-2,-1.105522633E0,2.002151251E0,1.001853657E1
8.897328600E-2,-1.139041424E0,1.959055543E0,1.028668785E1
9.096948400E-2,-1.139041424E0,2.045246840E0,1.025316906E1
9.296568200E-2,-1.052850246E0,2.188898802E0,1.007120991E1
9.496188000E-2,-1.004966140E0,2.160168409E0,1.017176628E1
9.695807700E-2,-1.014542937E0,2.155380011E0,1.008078671E1
9.895427500E-2,-9.475052953E-1,2.126649618E0,9.673771858E0
1.009504730E-1,-9.331400990E-1,2.212841034E0,9.261969566E0
1.029466710E-1,-7.751228213E-1,2.370858192E0,8.759186745E0
1.049428690E-1,-4.878185987E-1,2.246359825E0,8.941145897E0
1.069390670E-1,-2.148796022E-1,1.959055543E0,9.242815971E0
1.089352650E-1,9.157821536E-2,1.552041292E0,9.558850288E0
1.109314630E-1,4.746504724E-1,1.437119603E0,9.616311073E0
1.129276610E-1,7.906851172E-1,1.413177609E0,9.759963036E0
1.149238590E-1,9.582792521E-1,1.394023895E0,9.774328232E0
1.169200570E-1,9.917980433E-1,1.298255920E0,9.999382973E0
1.189162550E-1,1.049258947E0,1.408389091E0,9.999382973E0
1.209124520E-1,1.039682031E0,1.542464495E0,9.985017776E0
1.229086500E-1,9.487023950E-1,1.628655672E0,1.019091988E1
1.249048480E-1,9.582792521E-1,1.915959954E0,1.021486187E1
1.269010460E-1,8.577227592E-1,2.227206230E0,1.027232265E1
1.288972440E-1,6.853402257E-1,2.390011787E0,1.021965027E1
1.308934420E-1,5.991489887E-1,2.643797159E0,1.020528507E1
1.328896400E-1,6.087257862E-1,2.955043554E0,1.013824749E1
1.348858380E-1,5.512649417E-1,3.098695517E0,1.006163311E1
1.368820360E-1,4.459200799E-1,3.160944700E0,1.007120991E1
1.388782340E-1,4.363432527E-1,3.189675331E0,1.039203262E1
1.408744320E-1,4.698620737E-1,3.261501312E0,1.067933655E1
1.428706300E-1,4.554968774E-1,3.251924515E0,1.097142887E1
1.448668270E-1,4.124012291E-1,3.151367903E0,1.060272217E1
1.468630250E-1,2.783259451E-1,3.007715940E0,1.040160942E1
1.488592230E-1,1.298854351E-1,3.160944700E0,1.003290176E1
1.508554210E-1,1.921346933E-1,3.362057686E0,9.750386238E0
1.528516190E-1,2.352303118E-1,2.758718967E0,1.012388229E1
1.548478170E-1,2.400187254E-1,2.524087191E0,1.037287903E1
1.568440150E-1,3.597288132E-1,2.562394381E0,1.021007347E1
1.588402130E-1,5.225345492E-1,3.036446333E0,1.004247856E1
1.608364110E-1,4.411316514E-1,2.179322004E0,8.668207169E0
1.628326610E-1,3.549404144E-1,-1.813607812E-1,1.458188534E1
1.648289110E-1,6.949170232E-1,3.266289711E0,1.019091988E1
1.668251610E-1,8.050503135E-1,3.989338636E0,8.921992302E0
1.688214110E-1,3.405751884E-1,2.868852139E0,7.935581684E0
1.708176610E-1,2.454056777E-2,1.489791989E0,1.152209568E1
1.728139110E-1,3.214215636E-1,3.084330320E0,1.050216579E1
1.748101610E-1,3.597288132E-1,3.515286684E0,9.156624794E0
1.768064110E-1,2.304419130E-1,2.509721994E0,9.989806175E0
1.788026610E-1,6.763619930E-2,2.145803213E0,1.084693050E1
1.807989110E-1,6.284779310E-2,2.993350744E0,1.030584145E1
1.827951610E-1,6.763619930E-2,3.275866508E0,9.372102737E0
1.847914110E-1,-4.728548229E-2,2.835333347E0,9.932345390E0
1.867876610E-1,-1.909375787E-1,2.610278368E0,1.019091988E1
1.887839110E-1,-1.334767491E-1,2.375646591E0,1.104804420E1
1.907801610E-1,-8.080431074E-2,2.998139143E0,9.884461403E0
1.927764110E-1,-5.686229095E-2,3.084330320E0,9.946710587E0
1.947726610E-1,-8.559270948E-2,2.662950754E0,1.029626465E1
1.967689110E-1,-1.191115379E-1,2.797026157E0,1.028189945E1
1.987651610E-1,-1.095347255E-1,3.137002707E0,9.621099472E0
2.007614110E-1,-1.238999367E-1,2.859275341E0,9.673771858E0
2.027576610E-1,-6.165069342E-2,2.840121746E0,1.016697788E1
2.047539110E-1,-3.770867735E-2,2.868852139E0,9.745597839E0
2.067501610E-1,1.017535757E-2,2.643797159E0,1.050695419E1
2.087464110E-1,8.678980917E-2,2.844910145E0,1.049258900E1
2.107426610E-1,1.155202314E-1,2.945466757E0,9.793481827E0
2.127389110E-1,7.721300423E-2,2.782660961E0,1.035372543E1
2.147351610E-1,3.890577704E-2,2.682104349E0,1.061708736E1
2.167314110E-1,-2.813187055E-2,2.926312923E0,1.056920338E1
2.187276610E-1,-9.516951442E-2,2.873640537E0,1.016697788E1
2.207239110E-1,-1.286883354E-1,3.017292738E0,1.036809063E1
2.227201610E-1,-1.191115379E-1,3.113060713E0,9.961075783E0
2.247164110E-1,-1.861491799E-1,2.830544949E0,1.037287903E1
2.267126610E-1,-1.717839688E-1,2.959831953E0,1.014782429E1
2.287089110E-1,-1.334767491E-1,3.160944700E0,9.822212219E0
2.307051610E-1,-8.080431074E-2,2.835333347E0,1.038724422E1
2.327014110E-1,-5.207388848E-2,2.744353771E0,1.043033981E1
2.346976610E-1,1.203086376E-1,2.696469545E0,1.057878017E1
2.366939110E-1,1.825578809E-1,2.840121746E0,1.009515190E1
2.386901090E-1,1.250970364E-1,2.710834980E0,1.046864700E1
2.406863070E-1,5.327098817E-2,2.768295765E0,9.568427086E0
2.426825050E-1,4.848258570E-2,2.117072821E0,1.078468132E1
2.446787020E-1,4.848258570E-2,2.222417831E0,1.106719780E1
2.466749000E-1,3.890577704E-2,2.873640537E0,9.271546364E0
2.486710980E-1,-3.770867735E-2,2.950255156E0,8.663418770E0
2.506672960E-1,3.890577704E-2,2.184110403E0,1.043512821E1
2.526634940E-1,7.242459804E-2,1.896806240E0,1.100973606E1
2.546596920E-1,1.298854351E-1,2.227206230E0,1.029147625E1
2.566558900E-1,9.157821536E-2,2.500145197E0,9.309853554E0
2.586520880E-1,1.346738487E-1,2.327762604E0,1.039682102E1
2.606482860E-1,1.777694821E-1,2.653373957E0,9.214085579E0
2.626444840E-1,1.538274586E-1,2.131438017E0,1.021007347E1
2.646406820E-1,4.848258570E-2,2.169745207E0,9.807847023E0
2.666368800E-1,1.107318252E-1,2.097919226E0,9.884461403E0
2.686330770E-1,4.848258570E-2,2.576759577E0,8.893261909E0
2.706292750E-1,2.454056777E-2,2.567182779E0,8.778340340E0
2.726254730E-1,2.017114908E-1,1.987785935E0,9.721655846E0
2.746216710E-1,1.250970364E-1,1.829768658E0,1.024838066E1
2.766178690E-1,7.721300423E-2,2.346916199E0,8.677783966E0
2.786140670E-1,9.157821536E-2,1.824980259E0,9.429563522E0
2.806102650E-1,1.346738487E-1,9.487023950E-1,1.148378849E1
2.826064630E-1,5.985504249E-4,1.848922253E0,9.491812706E0
2.846026610E-1,-3.770867735E-2,2.696469545E0,8.112752914E0
2.865988590E-1,-1.669955701E-1,3.060388327E0,7.710526466E0
2.885950570E-1,-1.622071713E-1,1.982997537E0,9.281123161E0
2.905912550E-1,9.636662155E-2,-1.286883354E-1,1.321240234E1
2.925874520E-1,-1.430535465E-1,4.028244317E-1,1.149336529E1
2.945836500E-1,-3.824737072E-1,2.787449360E0,7.480683327E0
2.965798480E-1,-5.021837950E-1,3.170521498E0,7.341819286E0
2.985760460E-1,-5.261258483E-1,2.758718967E0,8.103176117E0
3.005722440E-1,-3.250128925E-1,5.991489887E-1,1.168968964E1
3.025684420E-1,-2.819172442E-1,2.112883031E-1,1.205839729E1
3.045646400E-1,-4.734533727E-1,1.044470549E0,1.048301220E1
3.065608380E-1,-8.230068088E-1,2.902370930E0,7.562086105E0
3.085570360E-1,-9.427168965E-1,3.117849112E0,7.432799339E0
3.105532340E-1,-7.320271730E-1,1.834557056E0,1.017176628E1
3.125494320E-1,-7.080851793E-1,1.652597666E0,9.850942612E0
3.145456300E-1,-6.697779298E-1,1.283890605E0,1.054047298E1
3.165418270E-1,-7.559691668E-1,9.678560495E-1,1.095227528E1
3.185380250E-1,-8.373720646E-1,1.815403461E0,9.242815971E0
3.205342230E-1,-8.756792545E-1,1.834557056E0,9.482235909E0
3.225304210E-1,-9.235633016E-1,2.706046581E0,8.649053574E0
3.245266190E-1,-9.331400990E-1,2.567182779E0,8.476671219E0
3.265228170E-1,-7.463923693E-1,1.370081902E0,1.059314537E1
3.285190150E-1,-7.368155718E-1,1.192911029E0,1.064581776E1
3.305152130E-1,-7.703344226E-1,1.695693374E0,9.367314339E0
3.325114110E-1,-8.756792545E-1,2.313397408E0,7.495048523E0
3.345076090E-1,-6.889315248E-1,1.872864246E0,9.558850288E0
3.365038070E-1,-6.314706802E-1,2.193687201E0,9.080010414E0
3.385000050E-1,-4.112041295E-1,2.059612036E0,8.936357498E0
3.404962020E-1,-1.909375787E-1,1.805826664E0,8.960299492E0
3.424924000E-1,5.386953708E-3,9.056068063E-1,1.050216579E1
3.444885980E-1,4.369417951E-2,1.590348482E0,9.103952408E0
3.464847960E-1,2.932897024E-2,1.690904975E0,8.826224327E0
3.484809940E-1,6.284779310E-2,1.504157186E0,9.123106003E0
3.504771920E-1,6.284779310E-2,1.135450125E0,9.458293915E0
3.524733900E-1,1.155202314E-1,1.643020868E0,8.811859131E0
3.544695880E-1,-1.376665942E-2,2.332551003E0,7.447164536E0
3.564657860E-1,2.064998895E-1,1.212064624E0,9.534908295E0
3.584619840E-1,2.591723204E-1,9.439139962E-1,9.874884605E0
3.604581820E-1,2.112883031E-1,1.331774712E0,9.348160744E0
3.624543800E-1,3.022679687E-1,1.652597666E0,8.821435928E0
3.644505770E-1,7.721300423E-2,2.208052635E0,8.203732491E0
3.664467750E-1,1.203086376E-1,2.030881643E0,8.965087891E0
3.684429730E-1,1.442506462E-1,2.088342428E0,8.869319916E0
3.704391710E-1,6.284779310E-2,2.299032211E0,8.356961250E0
3.724353690E-1,2.064998895E-1,1.461061597E0,9.803058624E0
3.744316190E-1,2.687491477E-1,9.151836038E-1,1.065539455E1
3.764278690E-1,4.848258570E-2,1.552041292E0,1.019570827E1
3.784241190E-1,-1.909375787E-1,2.164956808E0,8.629899979E0
3.804203690E-1,-1.717839688E-1,2.088342428E0,9.305065155E0
3.824166190E-1,-1.047463268E-1,2.088342428E0,9.137471199E0
3.844128690E-1,-1.855506375E-2,2.289455414E0,9.539696693E0
3.864091190E-1,-1.238999367E-1,2.155380011E0,9.065644264E0
3.884053690E-1,1.017535757E-2,1.408389091E0,1.027232265E1
3.904016190E-1,9.157821536E-2,1.073200941E0,1.025316906E1
3.923978690E-1,-5.686229095E-2,1.987785935E0,8.639476776E0
3.943941190E-1,-8.559270948E-2,1.753154159E0,9.386467934E0
3.963903690E-1,-1.478419602E-1,2.399588585E0,8.261193275E0
3.983866190E-1,-4.728548229E-2,1.326986313E0,9.616311073E0
4.003828690E-1,-1.382651478E-1,1.039682031E0,1.065539455E1
4.023791190E-1,-2.388216257E-1,1.973420739E0,9.175778389E0
4.043753690E-1,-1.957259923E-1,1.810615063E0,9.075222015E0
4.063716190E-1,-1.861491799E-1,1.317409515E0,1.066497135E1
4.083678690E-1,-4.255693555E-1,3.318962097E0,8.069656372E0
4.103641190E-1,-3.010708690E-1,3.227982521E0,7.854178905E0
4.123603690E-1,-7.122749835E-2,1.374870300E0,1.112944698E1
4.143566190E-1,1.059434265E-1,4.746504724E-1,1.150294209E1
4.163528690E-1,-1.286883354E-1,1.911171556E0,9.563638687E0
4.183491190E-1,-2.723404467E-1,3.323750496E0,8.160636902E0
4.203453690E-1,-3.441664875E-1,2.136226416E0,9.750386238E0
4.223416190E-1,-1.861491799E-1,1.355716705E0,1.098100567E1
4.243378690E-1,-1.813607812E-1,1.528099179E0,1.065060616E1
4.263341190E-1,-1.909375787E-1,2.519298792E0,9.017760277E0
4.283303690E-1,-2.244564146E-1,2.950255156E0,9.012971878E0
4.303266190E-1,-1.765723825E-1,2.998139143E0,9.645041466E0
4.323228690E-1,-8.559270948E-2,2.428318977E0,1.006163311E1
4.343191190E-1,-3.770867735E-2,2.729988575E0,9.592369080E0
4.363153690E-1,-1.047463268E-1,3.156156301E0,8.759186745E0
4.383116190E-1,-9.038111567E-2,2.097919226E0,9.721655846E0
4.403078690E-1,1.975216344E-2,1.920748353E0,1.020049667E1
4.423041190E-1,1.298854351E-1,1.853710651E0,1.046385860E1
4.443003690E-1,1.873462796E-1,2.390011787E0,9.175778389E0
4.462966190E-1,3.022679687E-1,2.749142170E0,8.605957985E0
4.482928690E-1,3.693056107E-1,2.591124773E0,8.265981674E0
4.502890670E-1,4.219780564E-1,1.255160213E0,9.194931984E0
4.522852650E-1,5.560533404E-1,9.056068063E-1,1.004247856E1
4.542814630E-1,6.326677799E-1,2.179322004E0,8.529343605E0
4.562776610E-1,7.619546652E-1,2.279878616E0,8.467094421E0
4.582738590E-1,6.949170232E-1,1.188122630E0,9.166201591E0
4.602700570E-1,7.523778677E-1,1.039682031E0,9.980229378E0
4.622662550E-1,8.050503135E-1,1.896806240E0,8.989029884E0
4.642624520E-1,8.050503135E-1,2.136226416E0,8.677783966E0
4.662586500E-1,7.092822790E-1,1.561618090E0,8.989029884E0
4.682548480E-1,5.129576921E-1,1.566406488E0,8.505401611E0
4.702510460E-1,5.129576921E-1,1.844133854E0,9.372102737E0
4.722472440E-1,4.411316514E-1,2.150591612E0,9.180566788E0
4.742434420E-1,3.357867897E-1,1.710058570E0,1.059314537E1
4.762396400E-1,1.825578809E-1,1.824980259E0,1.179503441E1
4.782358380E-1,2.454056777E-2,2.811391354E0,1.152209568E1
4.802320360E-1,-1.909375787E-1,2.610278368E0,1.235048962E1
4.822282340E-1,-3.537433147E-1,2.548029184E0,1.233133602E1
4.842244320E-1,-2.771288455E-1,3.189675331E0,1.411262226E1
4.862206300E-1,-1.478419602E-1,3.812167645E0,1.346139908E1
4.882168270E-1,-1.286883354E-1,3.816956043E0,1.321240234E1
4.902130250E-1,-3.292027488E-2,4.314949989E0,1.397375774E1
4.922092230E-1,6.763619930E-2,4.702810764E0,1.330817032E1
4.942054210E-1,3.740940094E-1,4.583100796E0,1.239358521E1
4.962016190E-1,8.720879555E-1,4.712387562E0,1.178545761E1
4.981978170E-1,9.870096445E-1,4.444236755E0,1.037766743E1
5.001940150E-1,1.236006618E0,4.156932831E0,9.625887871E0
5.021902130E-1,1.585560083E0,3.630208254E0,9.712079048E0
5.041864110E-1,1.844133854E0,2.883217335E0,9.764751434E0
5.061826090E-1,1.939901948E0,2.279878616E0,9.870096207E0
5.081788070E-1,1.920748353E0,1.647809267E0,9.621099472E0
5.101750050E-1,1.724423766E0,1.274313807E0,9.300276756E0
5.121712020E-1,1.417966008E0,1.101931334E0,9.276334763E0
5.141674000E-1,1.173757434E0,1.207276225E0,9.458293915E0
5.161635980E-1,9.343371987E-1,9.199720025E-1,9.233239174E0
5.181597960E-1,7.475894690E-1,7.428010702E-1,9.285911560E0
5.201559940E-1,2.879027426E-1,8.960300088E-1,9.434351921E0
5.221521920E-1,-5.686229095E-2,7.475894690E-1,9.127894402E0
5.241483900E-1,-1.669955701E-1,1.130661726E0,9.123106003E0
5.261445880E-1,-3.633201122E-1,1.298255920E0,9.127894402E0
5.281407860E-1,-3.010708690E-1,1.523310781E0,8.969876289E0
5.301369840E-1,-3.250128925E-1,1.868075848E0,9.405621529E0
5.321331820E-1,-4.542997777E-1,1.681328177E0,9.506177902E0
5.341293800E-1,-3.393780887E-1,1.896806240E0,1.002332497E1
5.361255770E-1,-2.962824702E-1,1.882441044E0,1.004247856E1
5.381217750E-1,-1.669955701E-1,1.686116576E0,9.874884605E0
5.401179730E-1,9.157821536E-2,1.820191860E0,1.036330223E1
5.421141710E-1,1.969230920E-1,1.992574334E0,1.038245583E1
5.441103690E-1,2.639607489E-1,1.925536752E0,9.889249802E0
5.461065670E-1,3.932476342E-1,2.203263998E0,9.788693428E0
5.481027650E-1,2.687491477E-1,2.203263998E0,9.491812706E0
5.500989630E-1,3.022679687E-1,2.346916199E0,9.448717117E0
5.520951610E-1,3.022679687E-1,1.954267144E0,9.534908295E0
5.540913590E-1,1.490390599E-1,1.465849996E0,9.448717117E0
5.560875570E-1,2.879027426E-1,1.662174582E0,9.510966301E0
5.580837550E-1,3.788824081E-1,1.556829691E0,9.716867447E0
5.600799520E-1,3.740940094E-1,1.403600693E0,9.664195061E0
5.620761500E-1,4.028244317E-1,1.398812294E0,9.726444244E0
5.640723480E-1,4.602852762E-1,1.183334231E0,9.645041466E0
5.660685460E-1,6.230909824E-1,1.336563110E0,1.017176628E1
5.680647440E-1,6.853402257E-1,1.341351509E0,9.582792282E0
5.700609420E-1,7.428010702E-1,1.303044319E0,8.768763542E0
5.720571400E-1,1.001374841E0,1.374870300E0,9.692925453E0
5.740533380E-1,1.068412542E0,1.413177609E0,9.941922188E0
5.760495360E-1,1.049258947E0,1.106719732E0,9.558850288E0
5.780457340E-1,1.082777739E0,1.173757434E0,9.668983459E0
5.800419320E-1,1.077989340E0,1.303044319E0,1.004726696E1
5.820381300E-1,9.965864420E-1,1.537676096E0,1.006642151E1
5.840343270E-1,8.912416101E-1,1.700481772E0,1.009036350E1
5.860305250E-1,8.577227592E-1,1.671751380E0,9.941922188E0
5.880267750E-1,8.289923668E-1,1.714846969E0,9.817423820E0
5.900230250E-1,7.763199210E-1,1.690904975E0,9.961075783E0
5.920192750E-1,7.475894690E-1,1.791461468E0,1.000895977E1
5.940155250E-1,8.146271110E-1,1.801038265E0,9.549273491E0
5.960117750E-1,7.236474752E-1,1.666962981E0,9.740809441E0
5.980080250E-1,7.715315223E-1,1.710058570E0,1.027232265E1
6.000042750E-1,7.092822790E-1,1.695693374E0,9.980229378E0
6.020005250E-1,5.799953341E-1,1.585560083E0,9.482235909E0
6.039967750E-1,4.554968774E-1,1.537676096E0,9.712079048E0
6.059930250E-1,6.374561787E-1,1.690904975E0,9.764751434E0
6.079892750E-1,5.991489887E-1,1.580771685E0,9.558850288E0
6.099855250E-1,5.943605900E-1,1.245583415E0,9.836577415E0
6.119817750E-1,6.613982320E-1,1.303044319E0,1.049258900E1
6.139780250E-1,7.044938207E-1,1.417966008E0,1.073679733E1
6.159742750E-1,6.183025837E-1,1.063624144E0,9.822212219E0
6.179705250E-1,6.087257862E-1,1.116296530E0,9.645041466E0
6.199667750E-1,4.554968774E-1,1.255160213E0,9.510966301E0
6.219630250E-1,6.566098332E-1,1.394023895E0,9.549273491E0
6.239592750E-1,7.140706778E-1,1.384447098E0,9.252392769E0
6.259555250E-1,6.374561787E-1,1.288679123E0,9.238027573E0
6.279517750E-1,4.794389009E-1,1.073200941E0,8.960299492E0
6.299480250E-1,6.135141850E-1,1.437119603E0,9.429563522E0
6.319442750E-1,5.799953341E-1,1.264737010E0,9.372102737E0
6.339405250E-1,4.219780564E-1,1.077989340E0,9.285911560E0
6.359367750E-1,2.974795699E-1,1.173757434E0,9.927556992E0
6.379330250E-1,8.200141042E-2,9.822212458E-1,9.783905029E0
6.399292750E-1,3.890577704E-2,1.010951638E0,1.023401546E1
6.419255250E-1,7.721300423E-2,1.331774712E0,1.030105305E1
6.439217750E-1,1.975216344E-2,1.384447098E0,9.860519409E0
6.459180250E-1,-2.334346622E-2,1.427542806E0,9.453505516E0
6.479142750E-1,-7.122749835E-2,1.394023895E0,9.391256332E0
6.499105250E-1,-1.334767491E-1,1.346139908E0,9.712079048E0
6.519067750E-1,-2.334346622E-2,1.575983286E0,1.036809063E1
6.539030250E-1,6.763619930E-2,1.681328177E0,1.031062984E1
6.558992750E-1,-1.376665942E-2,1.604713678E0,9.980229378E0
6.578955250E-1,-3.292027488E-2,1.652597666E0,9.831789017E0
6.598917750E-1,1.921346933E-1,1.801038265E0,9.759963036E0
6.618880250E-1,3.453635871E-1,1.930325150E0,9.736021042E0
6.638842230E-1,3.693056107E-1,1.710058570E0,9.247604370E0
6.658804210E-1,4.171896577E-1,1.417966008E0,9.175778389E0
6.678766190E-1,3.357867897E-1,1.413177609E0,9.496601105E0
6.698728170E-1,4.938040972E-1,1.556829691E0,1.001374817E1
6.718690150E-1,3.262099922E-1,1.307832718E0,9.941922188E0
6.738652130E-1,3.022679687E-1,1.121084929E0,9.056067467E0
6.758614110E-1,1.155202314E-1,1.212064624E0,9.554061890E0
6.778576090E-1,2.400187254E-1,1.408389091E0,1.043512821E1
6.798538070E-1,1.442506462E-1,1.049258947E0,1.016697788E1
6.818500050E-1,-2.334346622E-2,5.943605900E-1,9.961075783E0
6.838462020E-1,-1.376665942E-2,1.135450125E0,1.013824749E1
6.858424000E-1,2.448071241E-1,1.623867273E0,1.001374817E1
6.878385980E-1,1.729810685E-1,1.820191860E0,9.448717117E0
6.898347960E-1,1.107318252E-1,1.757942557E0,9.036913872E0
6.918309940E-1,1.681926697E-1,1.801038265E0,9.649829865E0
6.938271920E-1,2.400187254E-1,1.552041292E0,9.582792282E0
6.958233900E-1,3.693056107E-1,1.168969035E0,9.759963036E0
6.978195880E-1,3.645172119E-1,1.346139908E0,1.048780060E1
6.998157860E-1,3.932476342E-1,1.599925280E0,1.083256531E1
7.018119840E-1,3.166331649E-1,1.705270171E0,1.026753426E1
7.038081820E-1,2.926911712E-1,1.389235497E0,9.276334763E0
7.058043800E-1,2.400187254E-1,1.164180517E0,9.649829865E0
7.078005770E-1,4.369417951E-2,1.403600693E0,1.026274586E1
7.097967750E-1,2.064998895E-1,1.638232470E0,9.846154213E0
7.117929730E-1,1.017535757E-2,1.293467522E0,9.678560257E0
7.137891710E-1,1.017535757E-2,1.298255920E0,9.783905029E0
7.157853690E-1,-1.855506375E-2,1.465849996E0,1.012388229E1
7.177815670E-1,-5.207388848E-2,1.489791989E0,9.645041466E0
7.197777650E-1,-1.717839688E-1,1.604713678E0,9.506177902E0
7.217739630E-1,-1.669955701E-1,1.767519355E0,9.563638687E0
7.237701610E-1,-2.292448133E-1,1.456273198E0,8.601169586E0
7.257663590E-1,-2.148796022E-1,1.245583415E0,8.601169586E0
7.277625570E-1,-2.579752207E-1,1.231218219E0,9.113529205E0
7.297587550E-1,-2.723404467E-1,9.822212458E-1,8.936357498E0
7.317549520E-1,-4.303577542E-1,4.746504724E-1,9.487024307E0
7.337511500E-1,-2.962824702E-1,5.416881442E-1,1.021486187E1
7.357473480E-1,-2.100912035E-1,6.470330358E-1,1.073679733E1
7.377435460E-1,-4.255693555E-1,1.496376097E-2,1.049258900E1
7.397397440E-1,-2.388216257E-1,4.650736749E-1,1.098100567E1
7.417359420E-1,-1.717839688E-1,8.912416101E-1,1.076552773E1
7.437321400E-1,-2.771288455E-1,5.799953341E-1,9.218873978E0
7.457283380E-1,-7.122749835E-2,8.768763542E-1,8.787917137E0
7.477245360E-1,-6.165069342E-2,1.030105233E0,9.218873978E0
7.497207340E-1,-4.249707982E-2,9.056068063E-1,9.970652580E0
7.517169320E-1,3.411737457E-2,9.008184075E-1,9.846154213E0
7.537131300E-1,-2.579752207E-1,5.512649417E-1,9.075222015E0
7.557093270E-1,-4.303577542E-1,-9.516951442E-2,8.888473511E0
7.577055250E-1,-3.872621357E-1,2.256535143E-1,9.917980194E0
7.597017230E-1,-5.069721937E-1,5.805939063E-2,1.039203262E1
7.616979210E-1,-3.537433147E-1,1.969230920E-1,1.001374817E1
7.636941190E-1,-4.399345517E-1,5.464765429E-1,9.841365814E0
7.656903170E-1,-6.123170853E-1,4.363432527E-1,9.827000618E0
7.676865150E-1,-7.368155718E-1,5.512649417E-1,9.319430351E0
7.696827130E-1,-8.756792545E-1,4.794389009E-1,9.410409927E0
7.716789110E-1,-9.187749028E-1,4.076128304E-1,9.520543098E0
7.736751090E-1,-1.162983418E0,1.921346933E-1,9.621099472E0
7.756713070E-1,-1.340154409E0,-6.165069342E-2,9.601945877E0
7.776675050E-1,-1.301847219E0,1.011550203E-1,1.028189945E1
7.796637020E-1,-1.321000814E0,3.501519859E-1,1.005684471E1
7.816599000E-1,-1.282693505E0,4.746504724E-1,9.214085579E0
7.836560980E-1,-1.287482023E0,2.448071241E-1,9.544485092E0
7.856522960E-1,-1.344942808E0,3.890577704E-2,8.960299492E0
7.876484940E-1,-1.196502328E0,2.932897024E-2,9.874884605E0
7.896446920E-1,-1.086369038E0,1.586158574E-1,1.051174259E1
7.916408900E-1,-1.009754539E0,1.250970364E-1,1.026753426E1
7.936370880E-1,-9.810241461E-1,-1.095347255E-1,9.716867447E0
7.956332860E-1,-9.379284978E-1,-4.189853091E-3,9.429563522E0
7.976294840E-1,-8.373720646E-1,3.357867897E-1,9.736021042E0
7.996256820E-1,-8.469488621E-1,6.763619930E-2,9.831789017E0
8.016218800E-1,-7.607575655E-1,2.639607489E-1,9.831789017E0
8.036181300E-1,-6.937199235E-1,5.847837925E-1,9.937133789E0
8.056143800E-1,-7.463923693E-1,9.157821536E-2,9.199720383E0
8.076106300E-1,-6.123170853E-1,-3.681085110E-1,9.419986725E0
8.096068800E-1,-4.495113790E-1,1.825578809E-1,1.062187576E1
8.116031300E-1,-4.830302000E-1,4.602852762E-1,1.018613148E1
8.135993800E-1,-4.686649740E-1,1.107318252E-1,9.352949142E0
8.155956300E-1,-4.926069975E-1,-6.165069342E-2,9.999382973E0
8.175918800E-1,-5.213374496E-1,1.873462796E-1,9.549273491E0
8.195881300E-1,-4.207809567E-1,1.825578809E-1,9.841365814E0
8.215843800E-1,-3.058592677E-1,2.735375464E-1,9.467870712E0
8.235806300E-1,-3.058592677E-1,4.076128304E-1,9.108740807E0
8.255768800E-1,-2.675520480E-1,4.028244317E-1,8.505401611E0
8.275731300E-1,-1.191115379E-1,-2.723404467E-1,8.854954720E0
8.295693800E-1,7.721300423E-2,-4.926069975E-1,1.054526138E1
8.315656300E-1,1.059434265E-1,-1.191115379E-1,1.025795746E1
8.335618800E-1,2.208651006E-1,5.386953708E-3,1.062666416E1
8.355581300E-1,2.735375464E-1,4.848258570E-2,1.059314537E1
8.375543800E-1,2.352303118E-1,3.309983909E-1,8.917203903E0
8.395506300E-1,1.825578809E-1,2.687491477E-1,9.716867447E0
8.415468800E-1,1.777694821E-1,2.687491477E-1,9.132682800E0
8.435431300E-1,2.352303118E-1,-4.189853091E-3,9.688137054E0
8.455393800E-1,2.448071241E-1,7.721300423E-2,9.774328232E0
8.475356300E-1,1.777694821E-1,1.011550203E-1,9.400833130E0
8.495318800E-1,1.681926697E-1,6.763619930E-2,9.400833130E0
8.515281300E-1,1.634042710E-1,1.969230920E-1,9.894038200E0
8.535243800E-1,2.454056777E-2,1.777694821E-1,9.333795547E0
8.555206300E-1,-3.770867735E-2,-2.579752207E-1,9.458293915E0
8.575168800E-1,1.496376097E-2,-1.191115379E-1,1.019570827E1
8.595131300E-1,-1.143231317E-1,-1.430535465E-1,1.066975975E1
8.615093800E-1,-1.191115379E-1,2.454056777E-2,1.028668785E1
8.635056300E-1,-1.813607812E-1,-1.765723825E-1,1.006642151E1
8.655018800E-1,-2.483984232E-1,-1.855506375E-2,9.779116631E0
8.674981300E-1,-2.531868219E-1,-4.728548229E-2,1.017655468E1
8.694943800E-1,-2.579752207E-1,5.327098817E-2,9.175778389E0
8.714906300E-1,-3.345896900E-1,-3.968389332E-1,9.123106003E0
8.734868800E-1,-1.765723825E-1,-4.782418013E-1,9.630676270E0
8.754831300E-1,-1.574187577E-1,-3.298012912E-1,9.846154213E0
8.774793800E-1,-2.148796022E-1,-2.483984232E-1,1.068412495E1
8.794755770E-1,-2.819172442E-1,-8.978256024E-3,9.352949142E0
8.814717750E-1,-3.010708690E-1,-2.914940715E-1,9.156624794E0
8.834679730E-1,-2.579752207E-1,-5.596446395E-1,1.022443867E1
8.854641710E-1,-1.765723825E-1,-5.117605925E-1,1.110550499E1
8.874603690E-1,-1.765723825E-1,-9.995792061E-2,9.855731010E0
8.894565670E-1,-2.388216257E-1,1.011550203E-1,9.549273491E0
8.914527650E-1,-2.579752207E-1,2.687491477E-1,9.261969566E0
8.934489630E-1,-1.861491799E-1,5.985504249E-4,9.204508781E0
8.954451610E-1,-9.516951442E-2,-7.511807680E-1,1.050216579E1
8.974413590E-1,-1.855506375E-2,-2.675520480E-1,9.477447510E0
8.994375570E-1,3.890577704E-2,-1.430535465E-1,9.314641953E0
9.014337550E-1,1.250970364E-1,-2.627636492E-1,9.127894402E0
9.034299520E-1,5.805939063E-2,-3.292027488E-2,8.653841972E0
9.054261500E-1,1.011550203E-1,-3.872621357E-1,8.543708801E0
9.074223480E-1,2.639607489E-1,-7.128735781E-1,9.467870712E0
9.094185460E-1,4.363432527E-1,-4.734533727E-1,1.013824749E1
9.114147440E-1,4.842272997E-1,-1.286883354E-1,9.922768593E0
9.134109420E-1,4.746504724E-1,-4.112041295E-1,1.022922707E1
9.154071400E-1,6.374561787E-1,-8.038532138E-1,1.112944698E1
9.174033380E-1,5.895721912E-1,-2.292448133E-1,9.707290649E0
9.193995360E-1,5.608417392E-1,4.267664552E-1,8.668207169E0
9.213957340E-1,6.661866307E-1,2.160767019E-1,8.572439194E0
9.233919320E-1,8.385691643E-1,2.543839216E-1,9.017760277E0
9.253881300E-1,9.247604012E-1,-2.244564146E-1,1.039682102E1
9.273843270E-1,1.063624144E0,-4.112041295E-1,1.103846741E1
9.293805250E-1,1.106719732E0,4.602852762E-1,9.980229378E0
9.313767230E-1,1.121084929E0,4.459200799E-1,9.970652580E0
9.333729210E-1,9.870096445E-1,1.825578809E-1,1.002332497E1
9.353691190E-1,1.068412542E0,1.496376097E-2,9.175778389E0
9.373653170E-1,9.630676508E-1,1.298854351E-1,9.692925453E0
9.393615150E-1,8.912416101E-1,-4.189853091E-3,9.611522675E0
9.413577130E-1,6.613982320E-1,-1.669955701E-1,9.913191795E0
9.433539110E-1,5.129576921E-1,-2.723404467E-1,9.496601105E0
9.453501090E-1,2.831143439E-1,-8.517372608E-1,1.045907021E1
9.473463070E-1,1.586158574E-1,-7.080851793E-1,9.827000618E0
9.493425050E-1,-1.855506375E-2,-9.516951442E-2,9.405621529E0
9.513387020E-1,-1.861491799E-1,-2.867056429E-1,1.022443867E1
9.533349000E-1,-4.112041295E-1,-4.112041295E-1,9.716867447E0
9.553310980E-1,-4.351461530E-1,-4.255693555E-1,9.922768593E0
9.573272960E-1,-5.644330382E-1,-6.643909961E-2,1.002811337E1
9.593234940E-1,-7.463923693E-1,3.214215636E-1,8.965087891E0
9.613196920E-1,-9.187749028E-1,-3.292027488E-2,8.907627106E0
9.633158900E-1,-1.072003841E0,-3.872621357E-1,9.415198326E0
9.653120880E-1,-1.124676228E0,-7.655459642E-1,1.018134308E1
9.673082860E-1,-1.081580639E0,-6.171054840E-1,1.038724422E1
9.693044840E-1,-1.186925530E0,-3.154360652E-1,9.592369080E0
9.713006820E-1,-9.858125448E-1,-5.500678420E-1,1.012867069E1
9.732968800E-1,-1.129464626E0,-6.649895310E-1,1.014782429E1
9.752930770E-1,-1.043273449E0,-5.548562407E-1,9.640253067E0
9.772892750E-1,-9.283517003E-1,-5.835866928E-1,8.280346870E0
9.792854730E-1,-7.080851793E-1,-1.153406620E0,9.319430351E0
9.812816710E-1,-6.506243348E-1,-8.469488621E-1,1.055004978E1
9.832778690E-1,-3.585317135E-1,-9.714473486E-1,1.086129570E1
9.852740670E-1,-4.399345517E-1,-4.782418013E-1,1.011430550E1
9.872702650E-1,-4.734533727E-1,-4.189853091E-3,1.000895977E1
9.892664630E-1,-4.016273320E-1,-6.410474777E-1,9.836577415E0
9.912626610E-1,-5.165489912E-1,1.107318252E-1,9.022548676E0
9.932588590E-1,-4.782418013E-1,8.864531517E-1,8.462306023E0
9.952550570E-1,-2.914940715E-1,1.969230920E-1,9.616311073E0
9.972512550E-1,-4.399345517E-1,-1.909375787E-1,1.005684471E1
9.992474520E-1,-1.574187577E-1,9.636662155E-2,9.668983459E0
1.001243650E0,4.369417951E-2,1.394622475E-1,9.578003883E0
1.003239848E0,1.017535757E-2,2.831143439E-1,9.860519409E0
1.005236046E0,2.352303118E-1,3.836708367E-1,9.774328232E0
1.007232244E0,8.678980917E-2,9.199720025E-1,8.984241486E0
1.009228442E0,1.346738487E-1,8.337807655E-1,8.941145897E0
1.011224640E0,2.160767019E-1,2.448071241E-1,1.000417137E1
1.013220838E0,3.022679687E-1,2.208651006E-1,9.975440979E0
1.015217036E0,3.740940094E-1,3.597288132E-1,1.019570827E1
1.017213234E0,3.309983909E-1,-2.723404467E-1,1.086129570E1
1.019209484E0,3.645172119E-1,-4.782418013E-1,9.798270226E0
1.021205734E0,9.157821536E-2,2.495955229E-1,9.017760277E0
1.023201984E0,-8.080431074E-2,-2.334346622E-2,9.525331497E0
1.025198234E0,-9.516951442E-2,-5.165489912E-1,9.798270226E0
1.027194484E0,-1.286883354E-1,-4.255693555E-1,9.247604370E0
1.029190734E0,-1.382651478E-1,-6.075286865E-1,1.008078671E1
1.031186984E0,-1.717839688E-1,-7.894880176E-1,1.020528507E1
1.033183234E0,-8.080431074E-2,-6.410474777E-1,9.908403397E0
1.035179484E0,-3.106476665E-1,-4.878185987E-1,9.841365814E0
1.037175734E0,-3.968389332E-1,-8.373720646E-1,1.032499504E1
1.039171984E0,-5.069721937E-1,-6.841431260E-1,1.024359226E1
1.041168234E0,-6.841431260E-1,-5.787982345E-1,9.817423820E0
1.043164484E0,-7.846996188E-1,6.763619930E-2,8.893261909E0
1.045160734E0,-8.182184100E-1,5.081692934E-1,8.419210434E0
1.047156984E0,-9.044097066E-1,-2.148796022E-1,9.985017776E0
1.049153234E0,-8.996213078E-1,-7.703344226E-1,1.092833328E1
1.051149484E0,-9.044097066E-1,-6.643909961E-2,8.687360764E0
1.053145734E0,-8.421604633E-1,-4.249707982E-2,9.506177902E0
1.055141984E0,-6.841431260E-1,-6.266822815E-1,9.922768593E0
1.057138234E0,-6.985083222E-1,-9.953893423E-1,1.100015926E1
1.059134484E0,-6.745663285E-1,-9.666589499E-1,1.011909389E1
1.061130734E0,-7.463923693E-1,-1.091157436E0,9.056067467E0
1.063126984E0,-5.931634903E-1,-1.019331336E0,9.439140320E0
1.065123234E0,-6.554127336E-1,-6.075286865E-1,1.001853657E1
1.067119484E0,-5.787982345E-1,-8.852560520E-1,9.726444244E0
1.069115734E0,-4.638765752E-1,-7.559691668E-1,9.640253067E0
1.071111984E0,-4.016273320E-1,-4.686649740E-1,1.014303589E1
1.073108234E0,-2.627636492E-1,-7.176619768E-1,9.731232643E0
1.075104484E0,-2.053027898E-1,-9.038111567E-2,8.797493935E0
1.077100734E0,-1.526303589E-1,1.873462796E-1,8.644265175E0
1.079096984E0,-4.189853091E-3,-4.782418013E-1,9.783905029E0
1.081093234E0,9.636662155E-2,-2.292448133E-1,9.012971878E0
1.083089484E0,1.681926697E-1,1.394622475E-1,8.936357498E0
1.085085734E0,3.597288132E-1,-7.601590455E-2,9.870096207E0
1.087081984E0,5.752069354E-1,-7.416039705E-1,1.123479176E1
1.089078234E0,5.225345492E-1,-5.207388848E-2,1.048301220E1
1.091074484E0,6.518214345E-1,9.103952050E-1,9.568427086E0
1.093070682E0,7.188590765E-1,9.774328470E-1,1.010951710E1
1.095066880E0,7.428010702E-1,8.768763542E-1,1.025795746E1
1.097063077E0,7.044938207E-1,1.777694821E-1,9.884461403E0
1.099059275E0,6.997054219E-1,8.864531517E-1,8.356961250E0
1.101055473E0,8.002619147E-1,9.391255975E-1,8.615534782E0
1.103051671E0,1.111508131E0,3.549404144E-1,1.022443867E1
1.105047869E0,1.173757434E0,-2.148796022E-1,1.104325581E1
1.107044067E0,1.154603720E0,1.155202314E-1,1.034414864E1
1.109040265E0,1.135450125E0,1.020528436E0,9.003395081E0
1.111036463E0,1.207276225E0,1.034893632E0,9.238027573E0
1.113032661E0,1.293467522E0,4.267664552E-1,1.104325581E1
1.115028859E0,1.283890605E0,6.422445774E-1,1.034893703E1
1.117025057E0,1.140238523E0,1.015740037E0,9.075222015E0
1.119021255E0,1.298255920E0,9.295488000E-1,9.108740807E0
1.121017452E0,1.240795016E0,4.602852762E-1,1.062666416E1
1.123013650E0,1.106719732E0,5.752069354E-1,9.400833130E0
1.125009848E0,1.111508131E0,9.008184075E-1,9.084798813E0
1.127006046E0,9.678560495E-1,3.932476342E-1,1.028668785E1
1.129002244E0,1.025316834E0,-1.909375787E-1,1.042555141E1
1.130998442E0,9.391255975E-1,7.380126715E-1,9.357737541E0
1.132994640E0,8.002619147E-1,1.413177609E0,8.213309288E0
1.134990838E0,8.864531517E-1,6.230909824E-1,9.410409927E0
1.136987036E0,6.757634282E-1,-2.340332121E-1,1.101931286E1
1.138983234E0,6.566098332E-1,-3.292027488E-2,1.051653099E1
1.140979432E0,4.602852762E-1,5.799953341E-1,9.070432663E0
1.142975630E0,6.566098332E-1,3.262099922E-1,1.023401546E1
1.144971827E0,5.081692934E-1,1.298854351E-1,1.006642151E1
1.146968025E0,6.135141850E-1,6.374561787E-1,8.706514359E0
1.148964223E0,7.475894690E-1,3.262099922E-1,8.917203903E0
1.150960421E0,7.523778677E-1,-5.883750916E-1,1.022922707E1
1.152956619E0,7.428010702E-1,-4.878185987E-1,9.736021042E0
1.154952817E0,8.002619147E-1,8.678980917E-2,9.343372345E0
1.156949015E0,9.008184075E-1,-3.681085110E-1,1.027232265E1
1.158945213E0,9.487023950E-1,-6.793547273E-1,1.081820011E1
1.160941411E0,8.625111580E-1,-5.596446395E-1,9.803058624E0
1.162937609E0,8.337807655E-1,-7.080851793E-1,9.329007149E0
1.164933807E0,8.002619147E-1,-5.787982345E-1,9.625887871E0
1.166930005E0,8.625111580E-1,-2.723404467E-1,1.024838066E1
1.168926202E0,8.768763542E-1,-1.957259923E-1,1.061229897E1
1.170922400E0,7.954735160E-1,-4.189853091E-3,9.218873978E0
1.172918598E0,8.146271110E-1,-1.478419602E-1,8.984241486E0
1.174914796E0,9.391255975E-1,-4.728548229E-2,8.984241486E0
1.176910994E0,1.034893632E0,-3.633201122E-1,9.386467934E0
1.178907192E0,1.073200941E0,-1.110311031E0,1.044949341E1
1.180903390E0,9.439139962E-1,-6.458359361E-1,9.180566788E0
1.182899588E0,1.030105233E0,-1.043273449E0,1.030584145E1
1.184895786E0,8.625111580E-1,-1.139041424E0,9.410409927E0
1.186891984E0,7.523778677E-1,-1.038484931E0,9.774328232E0
1.188888182E0,6.757634282E-1,-1.119887829E0,9.175778389E0
1.190884380E0,5.656301379E-1,-8.996213078E-1,9.046490669E0
1.192880577E0,5.416881442E-1,-6.649895310E-1,9.582792282E0
1.194876775E0,5.368997455E-1,-5.883750916E-1,9.860519409E0
1.196872973E0,5.656301379E-1,-8.708908558E-1,1.093791008E1
1.198869171E0,5.799953341E-1,-8.182184100E-1,1.077031612E1
1.200865369E0,3.453635871E-1,-3.633201122E-1,9.472659111E0
1.202861567E0,1.681926697E-1,-3.202244639E-1,8.965087891E0
1.204857765E0,2.304419130E-1,-4.542997777E-1,9.649829865E0
1.206853963E0,1.681926697E-1,-5.213374496E-1,9.510966301E0
1.208850161E0,5.805939063E-2,-7.416039705E-1,9.946710587E0
1.210846359E0,1.346738487E-1,-9.858125448E-1,1.065060616E1
1.212842557E0,-1.855506375E-2,-1.072003841E0,9.712079048E0
1.214838755E0,5.386953708E-3,-9.044097066E-1,9.999382973E0
1.216834952E0,5.985504249E-4,-6.745663285E-1,9.501389503E0
1.218831150E0,-9.516951442E-2,-1.153406620E0,9.530119896E0
1.220827348E0,-1.095347255E-1,-1.660977483E0,1.029626465E1
1.222823546E0,-2.388216257E-1,-1.895609140E0,1.104325581E1
1.224819744E0,-3.681085110E-1,-1.186925530E0,9.362525940E0
1.226815942E0,-4.016273320E-1,-9.714473486E-1,8.567650795E0
1.228812140E0,-2.867056429E-1,-1.364096403E0,8.854954720E0
1.230808338E0,-1.382651478E-1,-2.087145329E0,1.005205631E1
1.232804588E0,7.721300423E-2,-2.633023262E0,1.064102936E1
1.234800838E0,-4.189853091E-3,-2.034472942E0,9.367314339E0
1.236797088E0,8.200141042E-2,-1.560420990E0,8.481459618E0
1.238793338E0,1.155202314E-1,-1.914762855E0,9.793481827E0
1.240789588E0,5.327098817E-2,-1.933916450E0,9.396044731E0
1.242785838E0,-8.978256024E-3,-1.766322255E0,9.621099472E0
1.244782088E0,5.327098817E-2,-1.311424017E0,9.788693428E0
1.246778338E0,2.831143439E-1,-1.684919477E0,1.019091988E1
1.248774588E0,2.879027426E-1,-1.268328309E0,9.305065155E0
1.250770838E0,3.693056107E-1,-1.234809518E0,9.472659111E0
1.252767088E0,3.932476342E-1,-1.708861470E0,9.209297180E0
1.254763338E0,5.512649417E-1,-1.431134105E0,9.453505516E0
1.256759588E0,6.997054219E-1,-9.235633016E-1,9.946710587E0
1.258755838E0,5.704185367E-1,-9.475052953E-1,1.041597462E1
1.260752088E0,4.171896577E-1,-6.266822815E-1,9.362525940E0
1.262748338E0,6.230909824E-1,-1.028908134E0,1.051653099E1
1.264744588E0,7.428010702E-1,-1.182137132E0,1.118690777E1
1.266740838E0,7.332242727E-1,-2.867056429E-1,9.501389503E0
1.268737088E0,6.374561787E-1,5.386953708E-3,8.754398346E0
1.270733338E0,8.672995567E-1,-2.388216257E-1,8.936357498E0
1.272729588E0,8.960300088E-1,-8.277952671E-1,9.544485092E0
1.274725838E0,1.020528436E0,-1.368884802E0,1.064581776E1
1.276722088E0,9.678560495E-1,-1.411980510E0,1.041597462E1
1.278718338E0,1.044470549E0,-1.469441295E0,1.066497135E1
1.280714588E0,8.960300088E-1,-7.368155718E-1,8.979453087E0
1.282710838E0,1.044470549E0,-8.613140583E-1,8.989029884E0
1.284707088E0,1.039682031E0,-9.427168965E-1,9.065644264E0
1.286703338E0,1.010951638E0,-1.019331336E0,1.005684471E1
1.288699588E0,8.146271110E-1,-1.569997787E0,1.075116253E1
1.290695838E0,7.811083198E-1,-1.196502328E0,9.424775124E0
1.292692088E0,8.289923668E-1,-1.033696532E0,9.046490669E0
1.294688338E0,9.199720025E-1,-1.407191992E0,9.788693428E0
1.296684588E0,8.912416101E-1,-1.665765882E0,1.015261269E1
1.298680838E0,6.087257862E-1,-1.431134105E0,9.980229378E0
1.300677088E0,5.225345492E-1,-1.153406620E0,8.835801125E0
1.302673338E0,2.543839216E-1,-1.493383288E0,8.902838707E0
1.304669588E0,1.586158574E-1,-1.641823769E0,8.869319916E0
1.306665786E0,1.538274586E-1,-1.972223639E0,1.031541824E1
1.308661984E0,-1.861491799E-1,-1.732803464E0,1.020528507E1
1.310658182E0,-3.345896900E-1,-1.230021119E0,9.261969566E0
1.312654380E0,-4.734533727E-1,-2.633023262E0,1.155561447E1
1.314650577E0,-4.686649740E-1,-2.388814688E0,1.055004978E1
1.316646775E0,-3.776853085E-1,-7.751228213E-1,7.509413719E0
1.318642973E0,-4.016273320E-1,-1.522113681E0,8.639476776E0
1.320639171E0,-4.830302000E-1,-2.216432333E0,1.038724422E1
1.322635369E0,-4.782418013E-1,-2.407968283E0,1.092354488E1
1.324631567E0,-1.574187577E-1,-2.048838139E0,1.089960289E1
1.326627765E0,-2.771288455E-1,-1.742380261E0,9.362525940E0
1.328623963E0,-3.202244639E-1,-2.369661093E0,1.070327854E1
1.330620161E0,-2.196680009E-1,-2.187701702E0,1.007599831E1
1.332616359E0,-2.723404467E-1,-1.780687571E0,9.654618263E0
1.334612557E0,-2.914940715E-1,-1.962646842E0,9.482235909E0
1.336608755E0,-1.765723825E-1,-1.435922503E0,8.323442459E0
1.338604952E0,-7.122749835E-2,-1.680131078E0,9.329007149E0
1.340601150E0,1.017535757E-2,-1.627458572E0,1.006163311E1
1.342597348E0,-2.813187055E-2,-2.091933727E0,1.029147625E1
1.344593546E0,-4.728548229E-2,-1.732803464E0,9.065644264E0
1.346589744E0,1.634042710E-1,-2.647388458E0,1.103367901E1
1.348585942E0,2.304419130E-1,-2.063203335E0,9.376891136E0
1.350582140E0,3.309983909E-1,-1.761533856E0,8.179790497E0
1.352578338E0,4.124012291E-1,-2.273893118E0,9.812635422E0
1.354574536E0,3.357867897E-1,-2.230797529E0,9.568427086E0
1.356570734E0,2.448071241E-1,-2.494159698E0,9.941922188E0
1.358566932E0,3.214215636E-1,-2.350507498E0,9.257181168E0
1.360563130E0,2.639607489E-1,-1.684919477E0,8.395268440E0
1.362559327E0,3.357867897E-1,-1.795052767E0,9.285911560E0
1.364555525E0,5.129576921E-1,-1.742380261E0,8.859743118E0
1.366551723E0,9.103952050E-1,-2.211643934E0,1.071285534E1
1.368547921E0,8.242039084E-1,-2.254739523E0,1.127309895E1
1.370544119E0,6.901286244E-1,-1.948281646E0,8.921992302E0
1.372540317E0,8.194155097E-1,-2.374449492E0,9.798270226E0
1.374536515E0,6.661866307E-1,-2.455852509E0,1.012867069E1
1.376532713E0,6.135141850E-1,-2.446275473E0,9.798270226E0
1.378528911E0,5.560533404E-1,-2.503736496E0,1.022443867E1
1.380525109E0,2.831143439E-1,-2.666542053E0,1.066975975E1
1.382521307E0,2.932897024E-2,-2.896385431E0,9.659406662E0
1.384517505E0,1.975216344E-2,-2.240374327E0,9.487024307E0
1.386513702E0,-1.376665942E-2,-2.264316320E0,9.860519409E0
1.388509900E0,4.848258570E-2,-2.680907249E0,1.018134308E1
1.390506098E0,2.454056777E-2,-3.356072187E0,1.080862331E1
1.392502296E0,-1.957259923E-1,-3.107075214E0,1.014303589E1
1.394498494E0,-4.399345517E-1,-3.044826031E0,9.496601105E0
1.396494692E0,-5.644330382E-1,-2.910750628E0,8.371326447E0
1.398490890E0,-7.894880176E-1,-3.432686806E0,1.017176628E1
1.400487088E0,-1.000177741E0,-3.418321371E0,1.004247856E1
1.402483286E0,-1.378461599E0,-2.977788448E0,8.409633636E0
1.404479484E0,-1.392826796E0,-2.834136248E0,8.141483307E0
1.406475682E0,-1.388038397E0,-3.758298159E0,1.039203262E1
1.408471880E0,-1.522113681E0,-4.012083530E0,1.108635139E1
1.410468077E0,-1.565209389E0,-3.322553396E0,9.051279068E0
1.412464275E0,-1.455076098E0,-3.696048975E0,1.016218948E1
1.414460473E0,-1.340154409E0,-3.729567766E0,9.870096207E0
1.416456671E0,-1.474229693E0,-3.787028551E0,9.855731010E0
1.418452869E0,-1.407191992E0,-3.327341795E0,8.663418770E0
1.420449067E0,-1.282693505E0,-3.432686806E0,9.453505516E0
1.422445265E0,-1.182137132E0,-3.825335741E0,1.071285534E1
1.424441463E0,-1.129464626E0,-4.007295132E0,1.088523769E1
1.426437661E0,-1.115099430E0,-3.643376350E0,8.931569099E0
1.428433859E0,-9.906009436E-1,-3.691260576E0,8.735244751E0
1.430430057E0,-6.171054840E-1,-4.332906723E0,1.034893703E1
1.432426255E0,-4.830302000E-1,-4.237138271E0,9.932345390E0
1.434422452E0,-2.292448133E-1,-4.174889088E0,9.812635422E0
1.436418650E0,-1.047463268E-1,-3.868431330E0,9.372102737E0
1.438414848E0,5.985504249E-4,-4.021660328E0,9.386467934E0
1.440411046E0,1.250970364E-1,-3.466205597E0,8.850166321E0
1.442407244E0,1.011550203E-1,-3.504512787E0,9.783905029E0
1.444403442E0,3.597288132E-1,-3.911526918E0,1.046864700E1
1.446399640E0,5.129576921E-1,-3.787028551E0,1.033457184E1
1.448395838E0,5.799953341E-1,-3.308188200E0,9.252392769E0
1.450392088E0,5.895721912E-1,-2.982576847E0,8.941145897E0
1.452388338E0,6.901286244E-1,-2.977788448E0,9.606734276E0
1.454384588E0,7.284358740E-1,-2.580350876E0,9.443928719E0
1.456380838E0,8.337807655E-1,-2.733579874E0,9.841365814E0
1.458377088E0,8.672995567E-1,-2.905962229E0,9.994594574E0
1.460373338E0,9.630676508E-1,-3.135805607E0,1.067454815E1
1.462369588E0,9.630676508E-1,-3.284246206E0,1.036809063E1
1.464365838E0,9.774328470E-1,-3.514089584E0,1.053089619E1
1.466362088E0,9.391255975E-1,-3.193266630E0,9.180566788E0
1.468358338E0,8.912416101E-1,-3.159747601E0,8.270770073E0
1.470354588E0,7.954735160E-1,-3.710414171E0,9.573215485E0
1.472350838E0,9.965864420E-1,-4.409521103E0,1.114381218E1
1.474347088E0,8.385691643E-1,-3.772663355E0,1.003769016E1
1.476343338E0,6.422445774E-1,-3.351283789E0,8.730456352E0
1.478339588E0,5.704185367E-1,-3.317764997E0,9.879673004E0
1.480335838E0,3.645172119E-1,-3.820547342E0,1.079425812E1
1.482332088E0,1.538274586E-1,-3.092710018E0,8.605957985E0
1.484328338E0,-5.686229095E-2,-3.102286816E0,8.366538048E0
1.486324588E0,-3.250128925E-1,-4.241926670E0,1.078946972E1
1.488320838E0,-4.926069975E-1,-4.998494625E0,1.182376480E1
1.490317088E0,-6.171054840E-1,-3.672106743E0,8.725667953E0
1.492313338E0,-7.320271730E-1,-3.820547342E0,8.605957985E0
1.494309588E0,-6.266822815E-1,-4.127005100E0,9.817423820E0
1.496305838E0,-6.602011323E-1,-4.596268654E0,1.089481449E1
1.498302088E0,-5.835866928E-1,-4.677671432E0,1.082777691E1
1.500298338E0,-6.697779298E-1,-3.140594006E0,7.102399349E0
1.502294588E0,-7.990648150E-1,-3.131017208E0,6.709750175E0
1.504290838E0,-4.782418013E-1,-4.701613426E0,1.113902378E1
1.506287088E0,-4.447229803E-1,-5.343259811E0,1.285805988E1
1.508283338E0,-5.165489912E-1,-3.916315317E0,8.840589523E0
1.510279588E0,-4.542997777E-1,-3.964199543E0,8.323442459E0
1.512275838E0,-5.644330382E-1,-4.486135483E0,9.688137054E0
1.514272088E0,-6.075286865E-1,-4.730343819E0,1.032978344E1
1.516268338E0,-5.165489912E-1,-4.443039894E0,9.965864182E0
1.518264588E0,-3.345896900E-1,-4.399944305E0,9.898826599E0
1.520260838E0,-2.867056429E-1,-3.911526918E0,9.113529205E0
1.522257088E0,-3.202244639E-1,-4.337695122E0,9.702502251E0
1.524253286E0,-1.813607812E-1,-4.170100689E0,1.007120991E1
1.526249484E0,-2.723404467E-1,-4.012083530E0,9.860519409E0
1.528245682E0,-2.292448133E-1,-3.925892353E0,9.458293915E0
1.530241880E0,-1.669955701E-1,-4.059967518E0,9.151836395E0
