"Time (s)","Acceleration x (m/s^2)","Acceleration y (m/s^2)","Acceleration z (m/s^2)"
1.872247000E-2,-2.196680009E-1,1.164180517E0,9.716867447E0
2.071866800E-2,-2.340332121E-1,1.202487826E0,9.783905029E0
2.271486600E-2,-2.292448133E-1,1.283890605E0,9.822212219E0
2.471106300E-2,-2.005143911E-1,1.360505104E0,9.807847023E0
2.670726100E-2,-1.861491799E-1,1.394023895E0,9.812635422E0
2.870345900E-2,-1.574187577E-1,1.456273198E0,9.874884605E0
3.069965700E-2,-1.430535465E-1,1.494580388E0,9.903614998E0
3.269585500E-2,-1.286883354E-1,1.494580388E0,9.994594574E0
3.469205300E-2,-9.516951442E-2,1.571194887E0,1.001374817E1
3.668825100E-2,-5.207388848E-2,1.619078875E0,1.002332497E1
3.868444900E-2,2.454056777E-2,1.633444071E0,1.003290176E1
4.068064700E-2,3.411737457E-2,1.633444071E0,1.005684471E1
4.267684500E-2,8.200141042E-2,1.643020868E0,1.004247856E1
4.467304300E-2,8.678980917E-2,1.638232470E0,1.005205631E1
4.666924100E-2,5.805939063E-2,1.590348482E0,1.008557510E1
4.866543800E-2,2.454056777E-2,1.556829691E0,1.012388229E1
5.066163600E-2,5.327098817E-2,1.580771685E0,1.005205631E1
5.265783400E-2,2.454056777E-2,1.662174582E0,9.980229378E0
5.465403200E-2,1.975216344E-2,1.671751380E0,9.827000618E0
5.665023000E-2,-2.813187055E-2,1.676539779E0,9.822212219E0
5.864642800E-2,2.454056777E-2,1.724423766E0,9.582792282E0
6.064262600E-2,-2.813187055E-2,1.863287449E0,9.673771858E0
6.263882400E-2,-8.978256024E-3,1.829768658E0,9.884461403E0
6.463502200E-2,7.721300423E-2,1.796249866E0,9.894038200E0
6.663122000E-2,5.327098817E-2,1.820191860E0,9.903614998E0
6.862741800E-2,1.155202314E-1,1.853710651E0,9.927556992E0
7.062361600E-2,1.346738487E-1,1.906383157E0,9.937133789E0
7.261981300E-2,1.059434265E-1,1.896806240E0,9.884461403E0
7.461601100E-2,7.242459804E-2,1.877652645E0,9.783905029E0
7.661220900E-2,8.200141042E-2,1.982997537E0,9.683348656E0
7.860840700E-2,6.763619930E-2,1.997362733E0,9.582792282E0
8.060460500E-2,6.763619930E-2,2.016516447E0,9.573215485E0
8.260080300E-2,1.011550203E-1,2.102707624E0,9.429563522E0
8.459700100E-2,1.394622475E-1,2.112284422E0,9.400833130E0
8.659319900E-2,1.394622475E-1,2.117072821E0,9.400833130E0
8.858939700E-2,1.250970364E-1,2.102707624E0,9.161413193E0
9.058559500E-2,8.678980917E-2,2.184110403E0,9.075222015E0
9.258179300E-2,1.250970364E-1,2.208052635E0,9.534908295E0
9.457799100E-2,2.400187254E-1,2.184110403E0,9.668983459E0
9.657418800E-2,2.831143439E-1,2.222417831E0,9.678560257E0
9.857038600E-2,3.118447661E-1,2.308609009E0,9.582792282E0
1.005665840E-1,2.879027426E-1,2.231994629E0,9.640253067E0
1.025627820E-1,2.783259451E-1,2.184110403E0,9.827000618E0
1.045589800E-1,2.639607489E-1,2.270301819E0,9.932345390E0
1.065551780E-1,2.639607489E-1,2.480991602E0,9.558850288E0
1.085513760E-1,1.346738487E-1,2.500145197E0,9.357737541E0
1.105475740E-1,6.284779310E-2,2.404376984E0,9.755174637E0
1.125437720E-1,2.454056777E-2,2.370858192E0,9.884461403E0
1.145399700E-1,4.848258570E-2,2.543240786E0,9.702502251E0
1.165361680E-1,4.848258570E-2,2.600701571E0,9.257181168E0
1.185323660E-1,-5.207388848E-2,2.643797159E0,9.439140320E0
1.205285630E-1,-9.995792061E-2,2.538452387E0,1.026274586E1
1.225247610E-1,5.985504249E-4,2.672527552E0,9.941922188E0
1.245209590E-1,-4.189853091E-3,2.701258183E0,9.903614998E0
1.265171570E-1,2.932897024E-2,2.667739153E0,9.980229378E0
1.285133550E-1,8.200141042E-2,2.725200176E0,9.894038200E0
1.305095530E-1,9.157821536E-2,2.830544949E0,9.702502251E0
1.325057510E-1,8.200141042E-2,2.835333347E0,9.443928719E0
1.345019490E-1,4.848258570E-2,2.691681147E0,9.534908295E0
1.364981470E-1,3.890577704E-2,2.653373957E0,9.673771858E0
1.384943450E-1,8.678980917E-2,2.576759577E0,9.975440979E0
1.404905430E-1,1.107318252E-1,2.639008760E0,9.927556992E0
1.424867410E-1,4.369417951E-2,2.854486942E0,8.969876289E0
1.444829380E-1,-3.770867735E-2,2.423530579E0,9.755174637E0
1.464791360E-1,4.848258570E-2,2.557605982E0,9.554061890E0
1.484753860E-1,-9.516951442E-2,2.816179752E0,9.898826599E0
1.504716360E-1,-4.728548229E-2,2.567182779E0,9.999382973E0
1.524678860E-1,-8.080431074E-2,2.500145197E0,1.006163311E1
1.544641360E-1,-9.995792061E-2,2.749142170E0,9.846154213E0
1.564603860E-1,-1.765723825E-1,3.007715940E0,8.874108315E0
1.584566360E-1,-2.148796022E-1,2.873640537E0,8.596381187E0
1.604528860E-1,-2.196680009E-1,2.624643564E0,9.554061890E0
1.624491360E-1,-3.770867735E-2,2.600701571E0,1.013345909E1
1.644453860E-1,1.059434265E-1,2.811391354E0,9.774328232E0
1.664416360E-1,1.250970364E-1,2.878428936E0,9.041702271E0
1.684378860E-1,2.454056777E-2,2.662950754E0,9.099164009E0
1.704341360E-1,3.890577704E-2,2.528875589E0,9.587580681E0
1.724303860E-1,1.155202314E-1,2.552817583E0,9.630676270E0
1.744266360E-1,1.298854351E-1,2.624643564E0,9.491812706E0
1.764228860E-1,1.298854351E-1,2.509721994E0,8.993818283E0
1.784191360E-1,-1.855506375E-2,2.404376984E0,9.223662376E0
1.804153860E-1,5.985504249E-4,2.423530579E0,9.678560257E0
1.824116360E-1,9.636662155E-2,2.308609009E0,1.009994030E1
1.844078860E-1,1.442506462E-1,2.270301819E0,9.534908295E0
1.864041360E-1,7.721300423E-2,2.169745207E0,9.396044731E0
1.884003860E-1,1.496376097E-2,2.222417831E0,9.242815971E0
1.903966360E-1,1.496376097E-2,2.399588585E0,8.969876289E0
1.923928860E-1,5.805939063E-2,2.299032211E0,9.659406662E0
1.943891360E-1,1.011550203E-1,2.342127800E0,9.697713852E0
1.963853860E-1,1.586158574E-1,2.480991602E0,1.001853657E1
1.983816360E-1,1.059434265E-1,2.701258183E0,9.419986725E0
2.003778860E-1,-8.978256024E-3,2.552817583E0,9.151836395E0
2.023741360E-1,-1.143231317E-1,2.490568399E0,1.009036350E1
2.043703860E-1,-9.995792061E-2,2.897582531E0,9.549273491E0
2.063666360E-1,-8.080431074E-2,3.079541922E0,9.233239174E0
2.083628860E-1,-5.686229095E-2,2.816179752E0,9.961075783E0
2.103591360E-1,-1.765723825E-1,2.610278368E0,9.745597839E0
2.123553860E-1,-2.531868219E-1,2.868852139E0,9.223662376E0
2.143516360E-1,-2.340332121E-1,2.844910145E0,9.448717117E0
2.163478860E-1,-2.723404467E-1,2.605489969E0,9.491812706E0
2.183441360E-1,-2.340332121E-1,2.490568399E0,9.985017776E0
2.203403860E-1,-1.286883354E-1,2.284667015E0,1.069370174E1
2.223366360E-1,-1.574187577E-1,2.538452387E0,9.970652580E0
2.243328860E-1,-2.100912035E-1,2.763507366E0,9.314641953E0
2.263291360E-1,-2.962824702E-1,2.677315950E0,8.965087891E0
2.283253340E-1,-3.154360652E-1,2.471414804E0,9.372102737E0
2.303215320E-1,-2.627636492E-1,2.107496023E0,1.018613148E1
2.323177300E-1,-2.196680009E-1,2.035670042E0,1.040160942E1
2.343139280E-1,-2.436100245E-1,2.476203203E0,9.415198326E0
2.363101260E-1,-2.627636492E-1,2.452261209E0,9.525331497E0
2.383063240E-1,-2.819172442E-1,1.839345455E0,1.034893703E1
2.403025220E-1,-1.909375787E-1,2.605489969E0,8.950722694E0
2.422987200E-1,-1.622071713E-1,2.677315950E0,8.735244751E0
2.442949180E-1,-1.478419602E-1,2.476203203E0,8.955511093E0
2.462911160E-1,-7.122749835E-2,2.557605982E0,9.673771858E0
2.482873130E-1,4.848258570E-2,2.509721994E0,9.850942612E0
2.502835110E-1,1.059434265E-1,2.538452387E0,9.956287384E0
2.522797090E-1,1.155202314E-1,2.696469545E0,9.793481827E0
2.542759070E-1,1.011550203E-1,2.571971178E0,9.946710587E0
2.562721050E-1,-3.770867735E-2,2.509721994E0,9.539696693E0
2.582683030E-1,-1.286883354E-1,2.433107376E0,9.831789017E0
2.602645010E-1,-1.574187577E-1,2.409165382E0,1.032020664E1
2.622606990E-1,-1.478419602E-1,2.509721994E0,1.024838066E1
2.642568970E-1,-2.196680009E-1,2.543240786E0,9.865307808E0
2.662530950E-1,-3.010708690E-1,2.442684174E0,9.865307808E0
2.682492930E-1,-7.601590455E-2,1.614290476E0,1.076073933E1
2.702454910E-1,1.107318252E-1,6.518214345E-1,1.228824043E1
2.722416880E-1,-9.995792061E-2,-2.148796022E-1,1.335126591E1
2.742378860E-1,-6.314706802E-1,1.298854351E-1,1.280538750E1
2.762340840E-1,-1.421557307E0,1.398812294E0,1.255160236E1
2.782302820E-1,-1.953070045E0,2.002151251E0,1.023880386E1
2.802264800E-1,-1.708861470E0,4.870404720E0,8.864531517E0
2.822226780E-1,-1.297058821E0,5.890334606E0,8.309077263E0
2.842188760E-1,-9.570821524E-1,5.368398666E0,6.987477779E0
2.862150740E-1,-6.649895310E-1,5.033210754E0,7.523778915E0
2.882112720E-1,-2.579752207E-1,4.501697540E0,8.409633636E0
2.902074700E-1,1.442506462E-1,3.046023130E0,1.017655468E1
2.922036680E-1,3.693056107E-1,1.772307754E0,1.165617085E1
2.941998660E-1,4.459200799E-1,1.346139908E0,1.098579407E1
2.961960630E-1,2.495955229E-1,1.925536752E0,9.961075783E0
2.981922610E-1,2.639607489E-1,2.164956808E0,9.611522675E0
3.001884590E-1,3.070563674E-1,2.045246840E0,9.041702271E0
3.021846570E-1,2.017114908E-1,1.853710651E0,8.874108315E0
3.041808550E-1,1.634042710E-1,1.911171556E0,8.883685112E0
3.061770530E-1,1.298854351E-1,1.757942557E0,8.601169586E0
3.081732510E-1,-2.813187055E-2,1.513733983E0,8.510190010E0
3.101694490E-1,1.975216344E-2,1.575983286E0,9.070432663E0
3.121656470E-1,1.442506462E-1,1.872864246E0,9.309853554E0
3.141618450E-1,3.411737457E-2,1.643020868E0,8.926780701E0
3.161580430E-1,-9.038111567E-2,1.350928307E0,8.984241486E0
3.181542410E-1,-1.238999367E-1,1.374870300E0,9.755174637E0
3.201504380E-1,-4.189853091E-3,1.662174582E0,1.015740108E1
3.221466360E-1,8.678980917E-2,1.619078875E0,9.817423820E0
3.241428340E-1,5.805939063E-2,1.561618090E0,9.865307808E0
3.261390320E-1,5.985504249E-4,1.690904975E0,9.721655846E0
3.281352300E-1,-3.770867735E-2,1.609502077E0,9.592369080E0
3.301314280E-1,1.017535757E-2,1.705270171E0,9.554061890E0
3.321276260E-1,7.242459804E-2,1.834557056E0,9.506177902E0
3.341238240E-1,-9.516951442E-2,1.681328177E0,9.496601105E0
3.361200220E-1,-6.643909961E-2,1.762730956E0,9.697713852E0
3.381162200E-1,4.848258570E-2,1.863287449E0,9.736021042E0
3.401124180E-1,2.454056777E-2,1.729212165E0,9.525331497E0
3.421086160E-1,1.203086376E-1,2.006939650E0,1.017176628E1
3.441048130E-1,1.825578809E-1,1.954267144E0,1.013824749E1
3.461010110E-1,1.634042710E-1,1.858499050E0,9.894038200E0
3.480972090E-1,2.448071241E-1,1.796249866E0,9.841365814E0
3.500934070E-1,2.495955229E-1,1.580771685E0,9.721655846E0
3.520896050E-1,3.501519859E-1,1.633444071E0,1.003290176E1
3.540858030E-1,4.746504724E-1,1.801038265E0,9.937133789E0
3.560820530E-1,4.363432527E-1,1.628655672E0,9.549273491E0
3.580783030E-1,3.932476342E-1,1.662174582E0,9.463082314E0
3.600745530E-1,5.081692934E-1,1.973420739E0,1.001853657E1
3.620708030E-1,4.985924959E-1,2.174533606E0,9.750386238E0
3.640670530E-1,4.411316514E-1,2.169745207E0,9.582792282E0
3.660633030E-1,4.411316514E-1,2.327762604E0,9.668983459E0
3.680595530E-1,4.219780564E-1,2.289455414E0,9.712079048E0
3.700558030E-1,4.650736749E-1,1.997362733E0,9.683348656E0
3.720520530E-1,4.028244317E-1,1.777096152E0,9.697713852E0
3.740483030E-1,3.070563674E-1,1.662174582E0,9.736021042E0
3.760433340E-1,2.017114908E-1,1.666962981E0,9.750386238E0
3.780395840E-1,2.932897024E-2,1.441908002E0,9.707290649E0
3.800358340E-1,1.298854351E-1,1.489791989E0,9.999382973E0
3.820320840E-1,1.634042710E-1,1.575983286E0,9.649829865E0
3.840283340E-1,1.203086376E-1,1.820191860E0,9.266757965E0
3.860245840E-1,8.200141042E-2,1.930325150E0,9.276334763E0
3.880208340E-1,7.242459804E-2,2.030881643E0,9.726444244E0
3.900170840E-1,1.011550203E-1,1.949478745E0,9.712079048E0
3.920133340E-1,-2.813187055E-2,1.489791989E0,9.443928719E0
3.940095840E-1,2.454056777E-2,1.494580388E0,9.611522675E0
3.960058340E-1,1.394622475E-1,1.561618090E0,9.549273491E0
3.980020840E-1,6.284779310E-2,1.552041292E0,9.568427086E0
3.999983340E-1,1.298854351E-1,1.652597666E0,9.946710587E0
4.019945840E-1,1.203086376E-1,1.791461468E0,1.014782429E1
4.039908340E-1,1.011550203E-1,1.686116576E0,1.025316906E1
4.059870840E-1,1.155202314E-1,1.810615063E0,9.922768593E0
4.079833340E-1,5.985504249E-4,1.738788962E0,9.803058624E0
4.099795840E-1,2.454056777E-2,1.805826664E0,1.013345909E1
4.119758340E-1,4.848258570E-2,1.978209138E0,9.903614998E0
4.139720840E-1,5.386953708E-3,1.963843942E0,9.649829865E0
4.159683340E-1,-6.165069342E-2,2.097919226E0,9.807847023E0
4.179645840E-1,1.017535757E-2,2.385223389E0,9.745597839E0
4.199608340E-1,-8.978256024E-3,2.136226416E0,9.673771858E0
4.219570840E-1,1.496376097E-2,1.834557056E0,9.582792282E0
4.239533340E-1,-2.334346622E-2,1.734000564E0,9.884461403E0
4.259495840E-1,-3.292027488E-2,1.666962981E0,9.745597839E0
4.279458340E-1,-1.855506375E-2,1.623867273E0,9.721655846E0
4.299420840E-1,-2.813187055E-2,1.700481772E0,9.501389503E0
4.319383340E-1,-8.978256024E-3,1.714846969E0,9.965864182E0
4.339345320E-1,-1.855506375E-2,1.609502077E0,9.774328232E0
4.359307300E-1,-9.516951442E-2,1.317409515E0,9.726444244E0
4.379269280E-1,-9.038111567E-2,1.312621117E0,9.956287384E0
4.399231260E-1,-9.995792061E-2,1.413177609E0,9.889249802E0
4.419193240E-1,-3.770867735E-2,1.331774712E0,9.745597839E0
4.439155220E-1,-1.143231317E-1,1.604713678E0,9.793481827E0
4.459117190E-1,-9.038111567E-2,1.863287449E0,9.611522675E0
4.479079170E-1,-1.855506375E-2,2.050035238E0,9.846154213E0
4.499041150E-1,-2.334346622E-2,2.236783028E0,9.850942612E0
4.519003130E-1,-9.516951442E-2,2.284667015E0,9.410409927E0
4.538965110E-1,-1.376665942E-2,2.251148224E0,9.137471199E0
4.558927090E-1,5.386953708E-3,2.246359825E0,9.496601105E0
4.578889070E-1,6.284779310E-2,2.006939650E0,9.463082314E0
4.598851050E-1,4.369417951E-2,1.690904975E0,9.951498985E0
4.618813030E-1,1.975216344E-2,1.408389091E0,9.913191795E0
4.638775010E-1,1.011550203E-1,1.513733983E0,9.736021042E0
4.658736990E-1,2.448071241E-1,1.734000564E0,9.731232643E0
4.678698970E-1,2.879027426E-1,1.748365760E0,9.731232643E0
4.698660940E-1,2.783259451E-1,1.724423766E0,9.563638687E0
4.718622920E-1,3.453635871E-1,1.552041292E0,1.006642151E1
4.738584900E-1,3.597288132E-1,1.451484799E0,9.865307808E0
4.758546880E-1,4.507084787E-1,1.599925280E0,9.635464668E0
4.778508860E-1,5.081692934E-1,1.729212165E0,1.026753426E1
4.798470840E-1,4.554968774E-1,1.781884670E0,1.032499504E1
4.818432820E-1,3.405751884E-1,1.561618090E0,9.630676270E0
4.838394800E-1,3.645172119E-1,1.643020868E0,9.520543098E0
4.858356780E-1,2.687491477E-1,1.652597666E0,9.879673004E0
4.878318760E-1,2.160767019E-1,1.403600693E0,9.850942612E0
4.898280740E-1,6.763619930E-2,1.101931334E0,9.917980194E0
4.918242720E-1,9.157821536E-2,1.255160213E0,9.817423820E0
4.938204690E-1,1.490390599E-1,1.590348482E0,9.970652580E0
4.958166670E-1,2.454056777E-2,1.537676096E0,9.290699959E0
4.978128650E-1,-4.249707982E-2,1.394023895E0,9.319430351E0
4.998090630E-1,-1.717839688E-1,1.336563110E0,9.774328232E0
5.018052610E-1,-1.909375787E-1,1.384447098E0,9.491812706E0
5.038014590E-1,-1.047463268E-1,1.705270171E0,9.429563522E0
5.057976570E-1,-1.286883354E-1,1.820191860E0,9.429563522E0
5.077938550E-1,-1.143231317E-1,1.542464495E0,9.467870712E0
5.097900530E-1,-8.559270948E-2,1.231218219E0,9.697713852E0
5.117862510E-1,1.496376097E-2,1.173757434E0,1.012867069E1
5.137824490E-1,9.157821536E-2,1.192911029E0,1.034414864E1
5.157786470E-1,2.454056777E-2,1.283890605E0,9.558850288E0
5.177748440E-1,1.059434265E-1,1.336563110E0,9.175778389E0
5.197710420E-1,2.064998895E-1,1.427542806E0,9.736021042E0
5.217672400E-1,3.070563674E-1,1.456273198E0,9.601945877E0
5.237634380E-1,2.879027426E-1,1.499368787E0,9.419986725E0
5.257596360E-1,3.262099922E-1,1.547252893E0,9.329007149E0
5.277558340E-1,4.554968774E-1,1.537676096E0,9.788693428E0
5.297520320E-1,6.853402257E-1,1.365293503E0,1.010472870E1
5.317482300E-1,7.380126715E-1,1.341351509E0,9.798270226E0
5.337444280E-1,7.954735160E-1,1.523310781E0,9.601945877E0
5.357406260E-1,7.763199210E-1,1.748365760E0,9.668983459E0
5.377368240E-1,8.481459618E-1,1.829768658E0,9.927556992E0
5.397330220E-1,8.242039084E-1,1.901594758E0,9.951498985E0
5.417292190E-1,7.428010702E-1,1.963843942E0,9.520543098E0
5.437254170E-1,6.661866307E-1,1.959055543E0,9.721655846E0
5.457216150E-1,5.464765429E-1,1.892017841E0,9.846154213E0
5.477178130E-1,4.028244317E-1,1.585560083E0,1.010472870E1
5.497140110E-1,3.453635871E-1,1.336563110E0,9.956287384E0
5.517102090E-1,3.262099922E-1,1.389235497E0,9.716867447E0
5.537064070E-1,2.735375464E-1,1.547252893E0,9.443928719E0
5.557026050E-1,2.208651006E-1,1.628655672E0,9.688137054E0
5.576988030E-1,2.926911712E-1,1.791461468E0,9.827000618E0
5.596950010E-1,2.879027426E-1,1.824980259E0,9.740809441E0
5.616912510E-1,3.214215636E-1,1.614290476E0,9.621099472E0
5.636875010E-1,3.645172119E-1,1.532887697E0,9.587580681E0
5.656837510E-1,3.932476342E-1,1.394023895E0,9.309853554E0
5.676800010E-1,3.262099922E-1,1.417966008E0,9.668983459E0
5.696762510E-1,3.214215636E-1,1.623867273E0,9.879673004E0
5.716725010E-1,4.315548539E-1,1.580771685E0,9.601945877E0
5.736687510E-1,5.129576921E-1,1.499368787E0,9.530119896E0
5.756650010E-1,4.698620737E-1,1.365293503E0,1.012867069E1
5.776612510E-1,3.932476342E-1,1.173757434E0,1.029147625E1
5.796575010E-1,1.681926697E-1,1.164180517E0,9.487024307E0
5.816537510E-1,9.157821536E-2,1.470638394E0,9.285911560E0
5.836500010E-1,1.107318252E-1,1.532887697E0,9.764751434E0
5.856462510E-1,1.155202314E-1,1.432331204E0,1.014782429E1
5.876425010E-1,-9.995792061E-2,1.422754407E0,9.678560257E0
5.896387510E-1,-1.238999367E-1,1.437119603E0,9.668983459E0
5.916350010E-1,-1.478419602E-1,1.585560083E0,9.817423820E0
5.936312510E-1,-2.100912035E-1,1.844133854E0,9.396044731E0
5.956275010E-1,-1.909375787E-1,1.801038265E0,9.496601105E0
5.976237510E-1,-3.298012912E-1,1.566406488E0,9.611522675E0
5.996200010E-1,-4.112041295E-1,1.513733983E0,9.855731010E0
6.016162510E-1,-3.728969097E-1,1.475426793E0,1.006642151E1
6.036125010E-1,-3.920505345E-1,1.288679123E0,9.922768593E0
6.056087510E-1,-6.218938828E-1,6.230909824E-1,1.012867069E1
6.076050010E-1,-6.506243348E-1,7.188590765E-1,1.066497135E1
6.096012510E-1,-6.362590790E-1,9.678560495E-1,1.023880386E1
6.115975010E-1,-5.548562407E-1,1.073200941E0,9.458293915E0
6.135937510E-1,-4.638765752E-1,1.437119603E0,9.621099472E0
6.155900010E-1,-6.075286865E-1,1.820191860E0,9.362525940E0
6.175862510E-1,-4.782418013E-1,1.992574334E0,9.367314339E0
6.195825010E-1,-6.171054840E-1,1.724423766E0,9.333795547E0
6.215787510E-1,-6.027402878E-1,1.432331204E0,9.563638687E0
6.235750010E-1,-5.692214370E-1,1.398812294E0,9.855731010E0
6.255712510E-1,-4.495113790E-1,1.025316834E0,9.836577415E0
6.275675010E-1,-5.357026458E-1,9.391255975E-1,1.014303589E1
6.295637510E-1,-5.404910445E-1,6.661866307E-1,9.874884605E0
6.315600010E-1,-5.979518890E-1,5.368997455E-1,1.037287903E1
6.335562510E-1,-7.176619768E-1,7.954735160E-1,9.932345390E0
6.355525010E-1,-4.830302000E-1,1.149815321E0,9.405621529E0
6.375487510E-1,-3.441664875E-1,1.394023895E0,9.855731010E0
6.395450010E-1,-4.255693555E-1,1.537676096E0,9.774328232E0
6.415411990E-1,-4.399345517E-1,1.757942557E0,9.477447510E0
6.435373970E-1,-4.255693555E-1,1.643020868E0,9.472659111E0
6.455335940E-1,-3.250128925E-1,1.705270171E0,9.338583946E0
6.475297920E-1,-2.053027898E-1,1.202487826E0,9.391256332E0
6.495259900E-1,-2.005143911E-1,1.317409515E0,1.006642151E1
6.515221880E-1,6.284779310E-2,1.494580388E0,9.477447510E0
6.535183860E-1,-1.143231317E-1,1.255160213E0,9.726444244E0
6.555145840E-1,-1.376665942E-2,1.063624144E0,9.999382973E0
6.575107820E-1,1.538274586E-1,1.532887697E0,9.716867447E0
6.595069800E-1,2.400187254E-1,1.623867273E0,9.822212219E0
6.615031780E-1,1.442506462E-1,1.413177609E0,1.018134308E1
6.634993760E-1,2.352303118E-1,1.738788962E0,1.012388229E1
6.654955740E-1,4.363432527E-1,1.853710651E0,9.994594574E0
6.674917720E-1,2.591723204E-1,1.197699428E0,9.400833130E0
6.694879690E-1,1.873462796E-1,1.063624144E0,9.477447510E0
6.714841670E-1,1.969230920E-1,1.475426793E0,9.707290649E0
6.734803650E-1,2.454056777E-2,1.542464495E0,9.099164009E0
6.754765630E-1,1.538274586E-1,1.389235497E0,9.080010414E0
6.774727610E-1,1.059434265E-1,1.518522382E0,9.913191795E0
6.794689590E-1,5.805939063E-2,1.188122630E0,1.007120991E1
6.814651570E-1,-1.669955701E-1,9.487023950E-1,1.013824749E1
6.834613550E-1,-3.298012912E-1,7.475894690E-1,1.015261269E1
6.854575530E-1,-2.005143911E-1,1.054047346E0,1.035372543E1
6.874537510E-1,-6.643909961E-2,1.101931334E0,9.889249802E0
6.894499490E-1,-2.675520480E-1,1.130661726E0,9.659406662E0
6.914461470E-1,-4.686649740E-1,1.168969035E0,9.731232643E0
6.934423440E-1,-3.202244639E-1,1.106719732E0,9.692925453E0
6.954385420E-1,-2.819172442E-1,1.145026922E0,9.400833130E0
6.974347400E-1,-2.819172442E-1,1.010951638E0,9.089587212E0
6.994309380E-1,-3.106476665E-1,7.619546652E-1,9.870096207E0
7.014271360E-1,-4.255693555E-1,5.991489887E-1,1.032020664E1
7.034233340E-1,-5.165489912E-1,3.262099922E-1,9.822212219E0
7.054195320E-1,-5.500678420E-1,2.831143439E-1,9.941922188E0
7.074157300E-1,-2.292448133E-1,5.177460909E-1,9.999382973E0
7.094119280E-1,-3.824737072E-1,7.236474752E-1,9.755174637E0
7.114081260E-1,-4.973953962E-1,6.470330358E-1,9.822212219E0
7.134043240E-1,-4.447229803E-1,7.571662664E-1,9.008183479E0
7.154005220E-1,-2.867056429E-1,7.906851172E-1,9.549273491E0
7.173967190E-1,-2.388216257E-1,6.518214345E-1,9.314641953E0
7.193929170E-1,-2.436100245E-1,5.033808947E-1,1.007120991E1
7.213891150E-1,-3.058592677E-1,4.507084787E-1,1.027711105E1
7.233853130E-1,-2.005143911E-1,7.044938207E-1,1.011430550E1
7.253815110E-1,-1.855506375E-2,9.247604012E-1,1.013345909E1
7.273777090E-1,1.729810685E-1,9.917980433E-1,9.774328232E0
7.293739070E-1,1.017535757E-2,7.811083198E-1,9.108740807E0
7.313701050E-1,-2.334346622E-2,6.278793812E-1,9.108740807E0
7.333663030E-1,2.783259451E-1,6.470330358E-1,9.630676270E0
7.353625010E-1,3.405751884E-1,8.242039084E-1,9.951498985E0
7.373586990E-1,2.735375464E-1,8.337807655E-1,9.309853554E0
7.393548970E-1,4.985924959E-1,8.242039084E-1,9.333795547E0
7.413510940E-1,5.799953341E-1,1.015740037E0,9.554061890E0
7.433472920E-1,5.129576921E-1,8.768763542E-1,9.381679535E0
7.453434900E-1,5.943605900E-1,6.326677799E-1,9.946710587E0
7.473396880E-1,5.799953341E-1,5.512649417E-1,1.027232265E1
7.493358860E-1,6.757634282E-1,6.135141850E-1,1.010951710E1
7.513320840E-1,6.709750295E-1,6.039373875E-1,9.592369080E0
7.533282820E-1,7.906851172E-1,7.332242727E-1,9.961075783E0
7.553244800E-1,7.715315223E-1,1.044470549E0,9.156624794E0
7.573206780E-1,6.278793812E-1,9.439139962E-1,9.573215485E0
7.593168760E-1,5.033808947E-1,6.470330358E-1,9.434351921E0
7.613130740E-1,5.273229480E-1,5.799953341E-1,1.003769016E1
7.633092720E-1,6.709750295E-1,3.693056107E-1,1.092833328E1
7.653054690E-1,4.842272997E-1,5.805939063E-2,1.001853657E1
7.673016670E-1,1.586158574E-1,-2.723404467E-1,9.520543098E0
7.692978650E-1,1.442506462E-1,6.284779310E-2,9.410409927E0
7.712941150E-1,2.735375464E-1,3.549404144E-1,9.558850288E0
7.732903650E-1,2.448071241E-1,4.028244317E-1,9.257181168E0
7.752866150E-1,2.352303118E-1,1.729810685E-1,8.960299492E0
7.772828650E-1,4.848258570E-2,-4.189853091E-3,9.319430351E0
7.792791150E-1,-4.728548229E-2,-2.627636492E-1,1.021486187E1
7.812753650E-1,-4.728548229E-2,-5.740098357E-1,9.946710587E0
7.832716150E-1,-1.957259923E-1,-5.596446395E-1,9.865307808E0
7.852678650E-1,-2.053027898E-1,-7.894880176E-1,9.803058624E0
7.872641150E-1,-2.148796022E-1,-9.139865041E-1,1.061708736E1
7.892603650E-1,-4.926069975E-1,-6.602011323E-1,9.841365814E0
7.912566150E-1,-2.627636492E-1,-7.416039705E-1,9.558850288E0
7.932528650E-1,-4.207809567E-1,-7.368155718E-1,9.898826599E0
7.952491150E-1,-4.207809567E-1,-6.458359361E-1,1.046385860E1
7.972453650E-1,-5.069721937E-1,-4.782418013E-1,9.654618263E0
7.992416150E-1,-4.399345517E-1,-3.872621357E-1,1.007120991E1
8.012378650E-1,-5.165489912E-1,-1.334767491E-1,9.755174637E0
8.032341150E-1,-6.554127336E-1,-1.813607812E-1,9.113529205E0
8.052303650E-1,-5.165489912E-1,-3.633201122E-1,8.912415504E0
8.072266150E-1,-5.883750916E-1,-2.867056429E-1,9.439140320E0
8.092228650E-1,-5.404910445E-1,-2.531868219E-1,9.036913872E0
8.112191150E-1,-4.638765752E-1,-4.973953962E-1,1.010472870E1
8.132153650E-1,-2.675520480E-1,-7.272387743E-1,1.087566090E1
8.152116150E-1,-3.776853085E-1,-9.187749028E-1,1.033936024E1
8.172078650E-1,-4.351461530E-1,-8.661024570E-1,9.592369080E0
8.192041150E-1,-4.973953962E-1,-5.596446395E-1,9.621099472E0
8.212003650E-1,-4.638765752E-1,-2.531868219E-1,9.534908295E0
8.231966150E-1,-3.393780887E-1,-1.957259923E-1,8.883685112E0
8.251928650E-1,-2.579752207E-1,-9.038111567E-2,9.439140320E0
8.271891150E-1,-2.723404467E-1,-3.489548862E-1,1.040639782E1
8.291853650E-1,-2.627636492E-1,-3.537433147E-1,9.946710587E0
8.311816150E-1,-1.095347255E-1,-3.776853085E-1,9.453505516E0
8.331778650E-1,-4.728548229E-2,-2.436100245E-1,9.822212219E0
8.351741150E-1,-2.813187055E-2,-9.995792061E-2,9.927556992E0
8.371703650E-1,3.411737457E-2,-2.388216257E-1,9.429563522E0
8.391666150E-1,1.107318252E-1,-1.622071713E-1,9.788693428E0
8.411628650E-1,4.369417951E-2,8.678980917E-2,9.510966301E0
8.431591150E-1,2.879027426E-1,-2.813187055E-2,9.343372345E0
8.451553650E-1,1.634042710E-1,-6.266822815E-1,9.606734276E0
8.471516150E-1,-6.643909961E-2,-1.100734234E0,9.970652580E0
8.491478650E-1,5.985504249E-4,-5.500678420E-1,1.005205631E1
8.511440630E-1,2.304419130E-1,-1.191115379E-1,1.009036350E1
8.531402610E-1,9.157821536E-2,-5.883750916E-1,9.951498985E0
8.551364590E-1,-1.855506375E-2,-8.230068088E-1,9.874884605E0
8.571326570E-1,-3.770867735E-2,-3.824737072E-1,9.736021042E0
8.591288550E-1,1.873462796E-1,5.985504249E-4,9.654618263E0
8.611250530E-1,1.586158574E-1,2.454056777E-2,9.879673004E0
8.631212510E-1,2.932897024E-2,-1.813607812E-1,9.592369080E0
8.651174490E-1,-3.292027488E-2,-5.207388848E-2,9.099164009E0
8.671136470E-1,7.242459804E-2,3.309983909E-1,9.261969566E0
8.691098440E-1,1.017535757E-2,2.448071241E-1,9.137471199E0
8.711060420E-1,-1.478419602E-1,-3.058592677E-1,9.300276756E0
8.731022400E-1,1.975216344E-2,-6.697779298E-1,1.046385860E1
8.750984380E-1,-2.627636492E-1,-1.162983418E0,1.060272217E1
8.770946360E-1,-3.968389332E-1,-1.105522633E0,1.063145256E1
8.790908340E-1,-2.148796022E-1,-6.410474777E-1,1.045428181E1
8.810870320E-1,-3.393780887E-1,-1.143231317E-1,9.587580681E0
8.830832300E-1,-3.202244639E-1,-1.191115379E-1,9.118317604E0
8.850794280E-1,-4.064157307E-1,-1.143231317E-1,9.142259598E0
8.870756260E-1,-5.883750916E-1,-9.995792061E-2,9.247604370E0
8.890718240E-1,-4.686649740E-1,-4.249707982E-2,9.769539833E0
8.910680220E-1,-4.542997777E-1,-2.053027898E-1,9.668983459E0
8.930642190E-1,-5.596446395E-1,-4.303577542E-1,9.927556992E0
8.950604170E-1,-7.224503756E-1,-4.351461530E-1,9.874884605E0
8.970566150E-1,-6.266822815E-1,-2.819172442E-1,9.803058624E0
8.990528130E-1,-5.357026458E-1,-2.627636492E-1,9.922768593E0
9.010490110E-1,-5.596446395E-1,-3.393780887E-1,9.917980194E0
9.030452090E-1,-6.266822815E-1,-2.627636492E-1,9.932345390E0
9.050414070E-1,-5.692214370E-1,-1.909375787E-1,9.448717117E0
9.070376050E-1,-5.452794433E-1,-7.122749835E-2,9.175778389E0
9.090338030E-1,-4.926069975E-1,-2.053027898E-1,9.506177902E0
9.110300010E-1,-4.590881765E-1,-2.292448133E-1,9.625887871E0
9.130261990E-1,-4.447229803E-1,-2.962824702E-1,9.927556992E0
9.150223970E-1,-2.340332121E-1,-8.559270948E-2,1.004726696E1
9.170185940E-1,-1.382651478E-1,2.932897024E-2,1.002811337E1
9.190147920E-1,-1.095347255E-1,1.017535757E-2,9.683348656E0
9.210109900E-1,1.017535757E-2,2.591723204E-1,9.879673004E0
9.230071880E-1,-2.334346622E-2,1.011550203E-1,9.764751434E0
9.250033860E-1,-4.189853091E-3,-4.728548229E-2,9.563638687E0
9.269995840E-1,9.157821536E-2,1.975216344E-2,9.534908295E0
9.289957820E-1,1.777694821E-1,2.735375464E-1,9.606734276E0
9.309919800E-1,2.926911712E-1,8.678980917E-2,1.021007347E1
9.329881780E-1,2.495955229E-1,-3.292027488E-2,1.012867069E1
9.349843760E-1,1.538274586E-1,1.825578809E-1,9.625887871E0
9.369805740E-1,1.873462796E-1,5.273229480E-1,9.664195061E0
9.389767720E-1,2.831143439E-1,5.177460909E-1,9.635464668E0
9.409729690E-1,2.208651006E-1,6.039373875E-1,9.759963036E0
9.429691670E-1,2.017114908E-1,7.571662664E-1,9.434351921E0
9.449653650E-1,2.783259451E-1,8.816647530E-1,9.147047997E0
9.469615630E-1,4.028244317E-1,1.149815321E0,9.333795547E0
9.489577610E-1,3.166331649E-1,9.965864420E-1,9.946710587E0
9.509539590E-1,3.262099922E-1,6.901286244E-1,9.396044731E0
9.529501570E-1,2.304419130E-1,8.768763542E-1,1.022922707E1
9.549463550E-1,2.639607489E-1,6.183025837E-1,1.023880386E1
9.569425530E-1,9.636662155E-2,2.783259451E-1,1.021007347E1
9.589387510E-1,1.496376097E-2,1.975216344E-2,9.908403397E0
9.609349490E-1,4.848258570E-2,4.554968774E-1,9.965864182E0
9.629311470E-1,-4.728548229E-2,8.002619147E-1,9.501389503E0
9.649273440E-1,-2.334346622E-2,6.087257862E-1,9.180566788E0
9.669235420E-1,-2.292448133E-1,2.112883031E-1,9.539696693E0
9.689197400E-1,-3.393780887E-1,2.543839216E-1,9.515754700E0
9.709159380E-1,-5.548562407E-1,8.678980917E-2,9.534908295E0
9.729121360E-1,-5.500678420E-1,2.591723204E-1,9.625887871E0
9.749083340E-1,-4.830302000E-1,3.597288132E-1,9.965864182E0
9.769045320E-1,-5.596446395E-1,3.884592354E-1,9.630676270E0
9.789007300E-1,-6.027402878E-1,2.256535143E-1,9.726444244E0
9.808969800E-1,-5.404910445E-1,4.698620737E-1,1.018613148E1
9.828932300E-1,-5.931634903E-1,2.735375464E-1,9.381679535E0
9.848894800E-1,-5.404910445E-1,4.459200799E-1,9.707290649E0
9.868857300E-1,-4.638765752E-1,5.368997455E-1,1.039203262E1
9.888819800E-1,-4.590881765E-1,5.704185367E-1,9.496601105E0
9.908782300E-1,-6.554127336E-1,4.411316514E-1,9.391256332E0
9.928744800E-1,-5.357026458E-1,8.098387122E-1,1.024359226E1
9.948707300E-1,-3.489548862E-1,5.752069354E-1,1.048301220E1
9.968669800E-1,-7.416039705E-1,5.608417392E-1,9.515754700E0
9.988632300E-1,-5.261258483E-1,5.752069354E-1,9.056067467E0
1.000859480E0,-4.878185987E-1,8.002619147E-1,9.721655846E0
1.002855730E0,-6.602011323E-1,8.002619147E-1,1.013345909E1
1.004851980E0,-8.421604633E-1,5.656301379E-1,9.199720383E0
1.006848230E0,-6.123170853E-1,4.267664552E-1,9.501389503E0
1.008844480E0,-7.272387743E-1,7.332242727E-1,1.010472870E1
1.010840730E0,-5.835866928E-1,8.194155097E-1,9.774328232E0
1.012836980E0,-6.410474777E-1,6.805518270E-1,9.616311073E0
1.014833230E0,-6.410474777E-1,8.529343605E-1,9.568427086E0
1.016829480E0,-5.261258483E-1,1.010951638E0,9.276334763E0
1.018825730E0,-3.393780887E-1,1.293467522E0,9.218873978E0
1.020821980E0,-2.867056429E-1,1.034893632E0,9.841365814E0
1.022818230E0,-4.159925580E-1,4.890156984E-1,9.578003883E0
1.024814480E0,-2.196680009E-1,2.160767019E-1,9.812635422E0
1.026810730E0,-1.669955701E-1,3.740940094E-1,1.067454815E1
1.028806980E0,-2.962824702E-1,3.262099922E-1,1.036809063E1
1.030803230E0,-2.531868219E-1,-6.165069342E-2,1.010951710E1
1.032799480E0,-3.345896900E-1,2.352303118E-1,1.010951710E1
1.034795730E0,-6.643909961E-2,4.076128304E-1,9.635464668E0
1.036791980E0,-2.531868219E-1,6.709750295E-1,9.946710587E0
1.038788230E0,-1.909375787E-1,1.106719732E0,9.036913872E0
1.040784480E0,-8.080431074E-2,1.082777739E0,9.482235909E0
1.042780730E0,-1.909375787E-1,9.917980433E-1,9.113529205E0
1.044776980E0,2.454056777E-2,6.374561787E-1,8.888473511E0
1.046773230E0,7.242459804E-2,6.997054219E-1,9.199720383E0
1.048769480E0,1.011550203E-1,6.230909824E-1,9.927556992E0
1.050765730E0,-8.978256024E-3,2.783259451E-1,1.008078671E1
1.052761980E0,-5.686229095E-2,1.298854351E-1,1.076073933E1
1.054758230E0,8.200141042E-2,1.729810685E-1,1.062666416E1
1.056754480E0,-8.559270948E-2,4.076128304E-1,1.016218948E1
1.058750730E0,-1.574187577E-1,7.715315223E-1,9.496601105E0
1.060746928E0,-2.579752207E-1,1.145026922E0,9.285911560E0
1.062743126E0,-1.909375787E-1,1.389235497E0,8.869319916E0
1.064739324E0,-1.909375787E-1,1.197699428E0,9.850942612E0
1.066735522E0,-2.579752207E-1,6.470330358E-1,9.654618263E0
1.068731719E0,-2.005143911E-1,5.368997455E-1,9.635464668E0
1.070727917E0,-3.106476665E-1,4.028244317E-1,9.721655846E0
1.072724115E0,-2.100912035E-1,6.183025837E-1,9.774328232E0
1.074720313E0,-2.196680009E-1,9.295488000E-1,9.932345390E0
1.076716511E0,-1.957259923E-1,8.002619147E-1,9.688137054E0
1.078712709E0,-1.238999367E-1,9.343371987E-1,9.850942612E0
1.080708907E0,-1.286883354E-1,7.284358740E-1,9.793481827E0
1.082705105E0,1.017535757E-2,7.858967185E-1,9.271546364E0
1.084701303E0,1.442506462E-1,1.030105233E0,1.001374817E1
1.086697501E0,-1.526303589E-1,1.030105233E0,9.443928719E0
1.088693699E0,3.890577704E-2,1.293467522E0,1.009515190E1
1.090689897E0,9.636662155E-2,1.250371814E0,1.016218948E1
1.092686094E0,-1.813607812E-1,1.044470549E0,9.822212219E0
1.094682292E0,-9.995792061E-2,8.625111580E-1,9.750386238E0
1.096678490E0,2.932897024E-2,9.534908533E-1,1.034414864E1
1.098674688E0,-2.340332121E-1,1.250371814E0,1.003290176E1
1.100670886E0,-1.334767491E-1,1.269525409E0,9.242815971E0
1.102667084E0,-1.622071713E-1,1.595136881E0,8.979453087E0
1.104663282E0,-8.978256024E-3,1.518522382E0,9.759963036E0
1.106659480E0,-1.813607812E-1,1.140238523E0,9.247604370E0
1.108655678E0,-1.286883354E-1,1.556829691E0,1.016218948E1
1.110651876E0,-2.292448133E-1,1.508945584E0,9.132682800E0
1.112648074E0,-8.559270948E-2,7.954735160E-1,9.123106003E0
1.114644272E0,1.496376097E-2,9.247604012E-1,1.072722054E1
1.116640469E0,-1.717839688E-1,5.608417392E-1,1.037287903E1
1.118636667E0,-1.430535465E-1,5.512649417E-1,9.908403397E0
1.120632865E0,1.017535757E-2,9.008184075E-1,9.841365814E0
1.122629063E0,1.975216344E-2,9.487023950E-1,1.020049667E1
1.124625261E0,-2.813187055E-2,1.082777739E0,9.592369080E0
1.126621459E0,1.250970364E-1,1.513733983E0,9.817423820E0
1.128617657E0,-8.978256024E-3,1.542464495E0,9.242815971E0
1.130613855E0,6.763619930E-2,1.504157186E0,9.645041466E0
1.132610053E0,4.369417951E-2,1.240795016E0,9.386467934E0
1.134606251E0,5.805939063E-2,1.226429820E0,9.520543098E0
1.136602449E0,2.783259451E-1,9.774328470E-1,9.688137054E0
1.138598647E0,2.112883031E-1,8.625111580E-1,1.012867069E1
1.140594844E0,2.304419130E-1,6.326677799E-1,1.047822380E1
1.142591042E0,-8.559270948E-2,6.805518270E-1,1.078468132E1
1.144587240E0,1.975216344E-2,1.010951638E0,8.763975143E0
1.146583438E0,2.831143439E-1,1.259948611E0,8.888473511E0
1.148579636E0,5.386953708E-3,1.183334231E0,9.190143585E0
1.150575834E0,4.369417951E-2,5.368997455E-1,9.520543098E0
1.152572032E0,5.386953708E-3,9.636662155E-2,1.084214211E1
1.154568230E0,-1.717839688E-1,-5.500678420E-1,1.106240940E1
1.156564428E0,-3.770867735E-2,-3.537433147E-1,1.009036350E1
1.158560626E0,2.926911712E-1,-5.686229095E-2,1.092833328E1
1.160556824E0,-5.165489912E-1,-7.122749835E-2,9.712079048E0
1.162553022E0,-3.776853085E-1,7.475894690E-1,8.313865662E0
1.164549219E0,5.033808947E-1,9.056068063E-1,8.740033150E0
1.166545417E0,1.250970364E-1,6.087257862E-1,9.692925453E0
1.168541615E0,1.975216344E-2,2.017114908E-1,8.706514359E0
1.170537813E0,3.070563674E-1,5.033808947E-1,8.644265175E0
1.172534011E0,3.549404144E-1,7.188590765E-1,1.021965027E1
1.174530209E0,3.022679687E-1,4.076128304E-1,1.043512821E1
1.176526407E0,5.560533404E-1,2.017114908E-1,1.045907021E1
1.178522605E0,4.219780564E-1,5.225345492E-1,1.004726696E1
1.180518803E0,4.411316514E-1,8.337807655E-1,9.534908295E0
1.182515001E0,3.070563674E-1,8.672995567E-1,9.419986725E0
1.184511199E0,2.448071241E-1,5.225345492E-1,9.573215485E0
1.186507397E0,9.157821536E-2,4.842272997E-1,9.372102737E0
1.188503594E0,2.112883031E-1,1.059434265E-1,9.999382973E0
1.190499844E0,1.496376097E-2,2.932897024E-2,9.372102737E0
1.192496094E0,-3.770867735E-2,-9.516951442E-2,9.357737541E0
1.194492344E0,-8.559270948E-2,1.107318252E-1,1.017655468E1
1.196488594E0,-4.189853091E-3,2.304419130E-1,9.932345390E0
1.198484844E0,-8.978256024E-3,-5.207388848E-2,9.793481827E0
1.200481094E0,-5.207388848E-2,8.678980917E-2,9.295488358E0
1.202477344E0,-9.995792061E-2,2.879027426E-1,9.831789017E0
1.204473594E0,-1.095347255E-1,4.028244317E-1,1.048780060E1
1.206469844E0,-1.430535465E-1,5.368997455E-1,9.372102737E0
1.208466094E0,1.975216344E-2,7.715315223E-1,9.870096207E0
1.210462344E0,5.386953708E-3,4.267664552E-1,1.158913326E1
1.212458594E0,-2.819172442E-1,3.357867897E-1,1.047343540E1
1.214454844E0,-2.675520480E-1,5.847837925E-1,9.803058624E0
1.216451094E0,-2.627636492E-1,8.672995567E-1,9.228450775E0
1.218447344E0,-7.122749835E-2,1.116296530E0,9.515754700E0
1.220443594E0,-1.957259923E-1,9.008184075E-1,9.367314339E0
1.222439844E0,-1.478419602E-1,5.464765429E-1,9.424775124E0
1.224436094E0,-7.601590455E-2,8.385691643E-1,9.611522675E0
1.226432344E0,8.678980917E-2,6.518214345E-1,8.945934296E0
1.228428594E0,1.490390599E-1,2.591723204E-1,9.592369080E0
1.230424844E0,1.538274586E-1,6.278793812E-1,9.688137054E0
1.232421094E0,4.028244317E-1,3.453635871E-1,9.491812706E0
1.234417344E0,3.309983909E-1,8.200141042E-2,9.712079048E0
1.236413594E0,4.171896577E-1,4.848258570E-2,9.970652580E0
1.238409844E0,4.411316514E-1,-9.516951442E-2,1.063624096E1
1.240406094E0,6.284779310E-2,-3.154360652E-1,9.822212219E0
1.242402344E0,1.107318252E-1,-3.106476665E-1,9.194931984E0
1.244398594E0,4.369417951E-2,-1.191115379E-1,9.750386238E0
1.246394844E0,-1.143231317E-1,-3.250128925E-1,9.678560257E0
1.248391094E0,-1.717839688E-1,-3.585317135E-1,9.108740807E0
1.250387344E0,-3.441664875E-1,-1.024119735E0,9.544485092E0
1.252383594E0,-5.835866928E-1,-1.383249998E0,9.520543098E0
1.254379844E0,-5.740098357E-1,-1.277905107E0,9.836577415E0
1.256376094E0,-5.644330382E-1,-1.407191992E0,1.039203262E1
1.258372344E0,-7.990648150E-1,-1.637035370E0,1.063624096E1
1.260368594E0,-8.325836658E-1,-1.603516579E0,1.009515190E1
1.262364844E0,-7.559691668E-1,-1.737591863E0,1.046385860E1
1.264361094E0,-8.756792545E-1,-1.613093376E0,1.069849014E1
1.266357344E0,-1.091157436E0,-1.617881775E0,9.309853554E0
1.268353594E0,-8.182184100E-1,-1.737591863E0,8.146271706E0
1.270349792E0,-8.565256596E-1,-1.517325282E0,8.945934296E0
1.272345990E0,-8.565256596E-1,-1.359308004E0,9.132682800E0
1.274342188E0,-7.128735781E-1,-2.192490101E0,8.807070732E0
1.276338386E0,-7.799112201E-1,-2.843713045E0,9.036913872E0
1.278334584E0,-6.985083222E-1,-3.470993996E0,1.093312168E1
1.280330782E0,-8.948329091E-1,-3.715202570E0,1.055962658E1
1.282326980E0,-7.751228213E-1,-3.523666382E0,9.975440979E0
1.284323178E0,-4.734533727E-1,-3.667318344E0,1.050695419E1
1.286319376E0,-8.421604633E-1,-3.025672436E0,9.774328232E0
1.288315574E0,-5.596446395E-1,-2.714426279E0,9.257181168E0
1.290311772E0,-6.314706802E-1,-2.369661093E0,9.022548676E0
1.292307969E0,-4.542997777E-1,-2.278681517E0,8.639476776E0
1.294304167E0,-5.644330382E-1,-2.633023262E0,9.209297180E0
1.296300365E0,-6.793547273E-1,-2.680907249E0,9.276334763E0
1.298296875E0,-2.867056429E-1,-2.652176857E0,9.745597839E0
1.300293073E0,-3.633201122E-1,-2.508524895E0,1.078946972E1
1.302289271E0,-4.399345517E-1,-2.609081268E0,1.087087250E1
1.304285469E0,-2.819172442E-1,-2.288258314E0,9.841365814E0
1.306281667E0,-2.005143911E-1,-1.814206362E0,1.009036350E1
1.308277865E0,-6.643909961E-2,-1.680131078E0,9.597157478E0
1.310274063E0,-6.643909961E-2,-1.651400566E0,9.640253067E0
1.312270261E0,-7.601590455E-2,-1.665765882E0,9.424775124E0
1.314266459E0,1.496376097E-2,-1.646612167E0,9.716867447E0
1.316262656E0,6.284779310E-2,-1.464652896E0,9.032125473E0
1.318258854E0,2.160767019E-1,-1.287482023E0,9.951498985E0
1.320255052E0,2.256535143E-1,-1.579574585E0,9.827000618E0
1.322251250E0,4.076128304E-1,-1.431134105E0,1.030584145E1
1.324247448E0,3.597288132E-1,-1.220444322E0,1.027232265E1
1.326243646E0,3.693056107E-1,-1.115099430E0,9.295488358E0
1.328239844E0,3.980360329E-1,-8.038532138E-1,8.888473511E0
1.330236042E0,6.422445774E-1,-5.452794433E-1,9.453505516E0
1.332232240E0,4.602852762E-1,-4.926069975E-1,9.831789017E0
1.334228438E0,3.118447661E-1,-6.362590790E-1,1.003290176E1
1.336224636E0,3.884592354E-1,-8.708908558E-1,9.357737541E0
1.338220834E0,4.363432527E-1,-1.105522633E0,1.013824749E1
1.340217031E0,2.783259451E-1,-1.201290727E0,1.049737740E1
1.342213229E0,2.256535143E-1,-1.215655923E0,1.013824749E1
1.344209427E0,3.836708367E-1,-7.559691668E-1,1.027711105E1
1.346205625E0,1.442506462E-1,-5.069721937E-1,1.007120991E1
1.348201823E0,1.729810685E-1,-7.942764163E-1,9.405621529E0
1.350198021E0,1.250970364E-1,-2.436100245E-1,9.012971878E0
1.352194219E0,1.250970364E-1,7.242459804E-2,9.132682800E0
1.354190417E0,1.873462796E-1,-2.914940715E-1,9.127894402E0
1.356186615E0,1.394622475E-1,-6.745663285E-1,9.367314339E0
1.358182813E0,-4.189853091E-3,-7.990648150E-1,9.616311073E0
1.360179011E0,-1.047463268E-1,-9.283517003E-1,9.788693428E0
1.362175209E0,5.386953708E-3,-1.052850246E0,9.750386238E0
1.364171406E0,-1.334767491E-1,-1.579574585E0,9.783905029E0
1.366167604E0,-2.292448133E-1,-1.862090349E0,9.640253067E0
1.368163802E0,-1.334767491E-1,-1.780687571E0,1.008557510E1
1.370160000E0,-2.100912035E-1,-2.053626537E0,9.985017776E0
1.372156198E0,-1.765723825E-1,-2.326565504E0,1.013824749E1
1.374152396E0,-1.765723825E-1,-2.355295897E0,1.007120991E1
1.376148594E0,-3.202244639E-1,-2.178124905E0,1.062187576E1
1.378144792E0,-2.579752207E-1,-1.905186057E0,9.568427086E0
1.380140990E0,-7.601590455E-2,-1.493383288E0,9.065644264E0
1.382137188E0,-2.100912035E-1,-1.282693505E0,8.864531517E0
1.384133386E0,-1.334767491E-1,-1.402403593E0,9.798270226E0
1.386129584E0,-4.728548229E-2,-1.881243944E0,9.956287384E0
1.388125781E0,1.496376097E-2,-1.967435241E0,9.736021042E0
1.390121979E0,5.805939063E-2,-2.020107746E0,9.750386238E0
1.392118177E0,1.490390599E-1,-2.273893118E0,1.003290176E1
1.394114375E0,1.586158574E-1,-2.336142302E0,9.305065155E0
1.396110573E0,2.495955229E-1,-2.048838139E0,9.022548676E0
1.398106823E0,3.597288132E-1,-2.139817715E0,9.601945877E0
1.400103073E0,2.687491477E-1,-2.690484047E0,9.424775124E0
1.402099323E0,3.309983909E-1,-2.738368273E0,9.913191795E0
1.404095573E0,4.459200799E-1,-2.858078241E0,1.013824749E1
1.406091823E0,3.262099922E-1,-2.949058056E0,9.956287384E0
1.408088073E0,4.219780564E-1,-3.001730442E0,9.946710587E0
1.410084323E0,1.921346933E-1,-2.843713045E0,1.041118622E1
1.412080573E0,1.634042710E-1,-2.925115824E0,9.817423820E0
1.414076823E0,3.166331649E-1,-2.604292870E0,9.908403397E0
1.416073073E0,2.208651006E-1,-2.417545080E0,9.927556992E0
1.418069323E0,3.070563674E-1,-2.556408882E0,9.625887871E0
1.420065573E0,4.171896577E-1,-2.384026289E0,9.530119896E0
1.422061823E0,4.267664552E-1,-2.125452518E0,9.860519409E0
1.424058073E0,5.752069354E-1,-2.015319347E0,9.558850288E0
1.426054323E0,5.752069354E-1,-1.833359957E0,9.515754700E0
1.428050573E0,4.842272997E-1,-1.924339652E0,9.664195061E0
1.430046823E0,4.076128304E-1,-1.919551253E0,9.285911560E0
1.432043073E0,6.230909824E-1,-1.909974456E0,9.099164009E0
1.434039323E0,5.608417392E-1,-2.034472942E0,9.937133789E0
1.436035573E0,4.459200799E-1,-2.398391485E0,9.937133789E0
1.438031823E0,4.315548539E-1,-2.331353903E0,9.702502251E0
1.440028073E0,3.501519859E-1,-2.417545080E0,9.879673004E0
1.442024323E0,1.729810685E-1,-2.403179884E0,9.788693428E0
1.444020573E0,1.442506462E-1,-2.278681517E0,9.549273491E0
1.446016823E0,4.848258570E-2,-2.010530949E0,9.831789017E0
1.448013073E0,-8.978256024E-3,-1.780687571E0,9.745597839E0
1.450009323E0,-1.047463268E-1,-1.833359957E0,9.142259598E0
1.452005573E0,-3.154360652E-1,-2.144606113E0,9.319430351E0
1.454001823E0,-2.436100245E-1,-2.269104719E0,9.975440979E0
1.455998073E0,-4.638765752E-1,-2.412756681E0,1.010472870E1
1.457994323E0,-5.213374496E-1,-2.652176857E0,1.005205631E1
1.459990573E0,-5.261258483E-1,-2.925115824E0,1.042076302E1
1.461986823E0,-8.134300113E-1,-2.910750628E0,1.047343540E1
1.463983073E0,-8.277952671E-1,-2.460640907E0,9.515754700E0
1.465979323E0,-6.745663285E-1,-2.044049740E0,9.137471199E0
1.467975573E0,-4.926069975E-1,-1.818994761E0,9.716867447E0
1.469971823E0,-5.165489912E-1,-2.029684544E0,9.424775124E0
1.471968073E0,-3.728969097E-1,-2.350507498E0,9.290699959E0
1.473964323E0,-3.633201122E-1,-2.484582901E0,1.031062984E1
1.475960521E0,-3.250128925E-1,-2.465429306E0,9.510966301E0
1.477956719E0,-2.100912035E-1,-2.460640907E0,9.247604370E0
1.479952917E0,-1.526303589E-1,-2.455852509E0,9.573215485E0
1.481949115E0,-8.080431074E-2,-2.609081268E0,9.774328232E0
1.483945313E0,6.763619930E-2,-2.513313293E0,9.597157478E0
1.485941511E0,7.721300423E-2,-2.700061083E0,9.831789017E0
1.487937709E0,-3.292027488E-2,-2.613869667E0,9.654618263E0
1.489933906E0,7.242459804E-2,-2.532466888E0,9.736021042E0
1.491930104E0,9.636662155E-2,-2.522890091E0,9.649829865E0
1.493926302E0,1.681926697E-1,-2.709637880E0,9.463082314E0
1.495922500E0,2.735375464E-1,-2.522890091E0,9.898826599E0
1.497918698E0,2.783259451E-1,-2.321777105E0,9.932345390E0
1.499914896E0,3.405751884E-1,-2.475006104E0,1.004247856E1
1.501911094E0,3.070563674E-1,-2.838924646E0,9.764751434E0
1.503907292E0,1.969230920E-1,-2.522890091E0,9.601945877E0
1.505903490E0,2.735375464E-1,-2.427121878E0,9.587580681E0
1.507899688E0,1.681926697E-1,-2.398391485E0,9.578003883E0
1.509895886E0,1.250970364E-1,-2.508524895E0,9.688137054E0
1.511892084E0,1.011550203E-1,-2.384026289E0,9.994594574E0
1.513888281E0,7.721300423E-2,-2.441487074E0,9.640253067E0
1.515884479E0,9.157821536E-2,-2.623446465E0,9.482235909E0
1.517880677E0,3.890577704E-2,-2.704849482E0,9.659406662E0
1.519876875E0,2.932897024E-2,-2.776675463E0,9.496601105E0
1.521873073E0,-1.855506375E-2,-2.795829058E0,9.673771858E0
1.523869271E0,-4.728548229E-2,-2.838924646E0,1.005205631E1
1.525865469E0,6.284779310E-2,-2.565985680E0,1.018613148E1
1.527861667E0,-1.855506375E-2,-2.513313293E0,9.874884605E0
1.529857865E0,5.985504249E-4,-2.546832085E0,9.381679535E0
1.531854063E0,-2.813187055E-2,-2.422333479E0,9.879673004E0
1.533850261E0,-1.047463268E-1,-2.762310266E0,9.917980194E0
