"Time (s)","Acceleration x (m/s^2)","Acceleration y (m/s^2)","Acceleration z (m/s^2)"
1.997637600E-2,7.242459804E-2,1.634042710E-1,9.764751434E0
2.197476200E-2,6.284779310E-2,1.538274586E-1,9.779116631E0
2.397314700E-2,8.678980917E-2,1.681926697E-1,9.769539833E0
2.597153300E-2,7.242459804E-2,2.064998895E-1,9.740809441E0
2.796991800E-2,5.805939063E-2,2.495955229E-1,9.726444244E0
2.996830300E-2,3.890577704E-2,3.357867897E-1,9.736021042E0
3.196668900E-2,1.496376097E-2,4.267664552E-1,9.736021042E0
3.396507400E-2,-1.376665942E-2,4.602852762E-1,9.774328232E0
3.596346000E-2,5.985504249E-4,4.794389009E-1,9.822212219E0
3.796184500E-2,1.496376097E-2,4.938040972E-1,9.850942612E0
3.996023000E-2,1.496376097E-2,4.794389009E-1,9.922768593E0
4.195861600E-2,-4.189853091E-3,4.938040972E-1,9.908403397E0
4.395689700E-2,-1.376665942E-2,5.177460909E-1,9.898826599E0
4.595517800E-2,-3.770867735E-2,5.368997455E-1,9.879673004E0
4.795346000E-2,-8.559270948E-2,5.656301379E-1,9.927556992E0
4.995174100E-2,-1.334767491E-1,5.991489887E-1,9.922768593E0
5.195002200E-2,-1.717839688E-1,6.278793812E-1,9.913191795E0
5.394830300E-2,-2.148796022E-1,6.661866307E-1,9.927556992E0
5.594658500E-2,-2.148796022E-1,7.140706778E-1,9.917980194E0
5.794486600E-2,-2.196680009E-1,7.667431235E-1,9.913191795E0
5.994314700E-2,-2.148796022E-1,8.337807655E-1,9.922768593E0
6.194142800E-2,-1.765723825E-1,8.816647530E-1,9.946710587E0
6.393971000E-2,-1.717839688E-1,9.630676508E-1,9.965864182E0
6.593799100E-2,-1.382651478E-1,1.020528436E0,9.965864182E0
6.793627200E-2,-1.143231317E-1,1.030105233E0,9.989806175E0
6.993455300E-2,-9.516951442E-2,1.092354536E0,1.005684471E1
7.193283500E-2,-6.643909961E-2,1.202487826E0,1.006163311E1
7.393111600E-2,-8.080431074E-2,1.303044319E0,1.007599831E1
7.592939700E-2,-1.191115379E-1,1.360505104E0,1.013345909E1
7.792767800E-2,-1.286883354E-1,1.427542806E0,1.014303589E1
7.992596000E-2,-1.238999367E-1,1.532887697E0,1.016697788E1
8.192424100E-2,-1.334767491E-1,1.609502077E0,1.023401546E1
8.392257400E-2,-1.526303589E-1,1.686116576E0,1.032499504E1
8.592096000E-2,-1.238999367E-1,1.848922253E0,1.026274586E1
8.791939700E-2,-1.143231317E-1,1.992574334E0,1.022922707E1
8.991788700E-2,-1.382651478E-1,2.141014814E0,1.016697788E1
9.191642800E-2,-1.669955701E-1,2.160168409E0,1.028668785E1
9.391502200E-2,-2.005143911E-1,2.212841034E0,1.049737740E1
9.591366800E-2,-1.622071713E-1,2.332551003E0,1.048780060E1
9.791236600E-2,-1.717839688E-1,2.433107376E0,1.054526138E1
9.991111600E-2,-1.622071713E-1,2.533663988E0,1.048301220E1
1.019098660E-1,-1.574187577E-1,2.605489969E0,1.059793377E1
1.039086160E-1,-1.622071713E-1,2.701258183E0,1.053089619E1
1.059073660E-1,-1.717839688E-1,2.729988575E0,1.048780060E1
1.079061160E-1,-1.717839688E-1,2.873640537E0,1.036330223E1
1.099047620E-1,-1.909375787E-1,2.864063740E0,1.014782429E1
1.119030950E-1,-1.143231317E-1,2.830544949E0,1.003769016E1
1.139014280E-1,-3.770867735E-2,2.768295765E0,1.036330223E1
1.158997620E-1,-4.728548229E-2,2.729988575E0,1.055483818E1
1.178980950E-1,-7.122749835E-2,2.696469545E0,1.035851383E1
1.198964280E-1,-5.207388848E-2,2.797026157E0,1.011909389E1
1.218947620E-1,-5.686229095E-2,2.897582531E0,1.005205631E1
1.238930950E-1,-1.855506375E-2,2.921524525E0,1.016697788E1
1.258914280E-1,-2.813187055E-2,2.964620352E0,1.018134308E1
1.278898140E-1,-3.770867735E-2,3.069965124E0,9.922768593E0
1.298882510E-1,-8.080431074E-2,3.098695517E0,9.903614998E0
1.318866890E-1,-7.601590455E-2,3.227982521E0,9.941922188E0
1.338851260E-1,-1.143231317E-1,3.046023130E0,9.903614998E0
1.358835640E-1,-2.053027898E-1,2.907159328E0,1.013345909E1
1.378820010E-1,-2.388216257E-1,3.132214308E0,9.917980194E0
1.398804390E-1,-2.723404467E-1,3.146579504E0,9.898826599E0
1.418788760E-1,-3.058592677E-1,3.156156301E0,9.879673004E0
1.438773140E-1,-3.393780887E-1,3.299808502E0,9.922768593E0
1.458757510E-1,-3.824737072E-1,3.237559319E0,9.692925453E0
1.478741890E-1,-3.776853085E-1,3.295020103E0,1.003769016E1
1.498726260E-1,-2.962824702E-1,3.582324266E0,9.937133789E0
1.518710640E-1,-3.489548862E-1,3.476979494E0,9.913191795E0
1.538695010E-1,-3.681085110E-1,3.251924515E0,9.903614998E0
1.558679390E-1,-3.872621357E-1,3.376422882E0,1.013345909E1
1.578663760E-1,-3.154360652E-1,3.639785051E0,1.021486187E1
1.598648140E-1,-2.531868219E-1,4.094683647E0,1.000895977E1
1.618632510E-1,-2.867056429E-1,3.534440279E0,9.496601105E0
1.638616890E-1,-1.861491799E-1,2.892794132E0,1.068891335E1
1.658601260E-1,-1.574187577E-1,3.740341663E0,1.042076302E1
1.678585640E-1,-6.165069342E-2,4.109048843E0,1.026274586E1
1.698568450E-1,-2.813187055E-2,3.826532841E0,8.974664688E0
1.718549180E-1,-9.516951442E-2,3.208828926E0,9.022548676E0
1.738529910E-1,5.386953708E-3,3.347692490E0,1.017655468E1
1.758510640E-1,1.681926697E-1,3.644573450E0,1.044949341E1
1.778491370E-1,2.064998895E-1,3.419518471E0,9.376891136E0
1.798472100E-1,1.777694821E-1,3.098695517E0,9.022548676E0
1.818453350E-1,1.634042710E-1,3.103483915E0,9.568427086E0
1.838435120E-1,2.591723204E-1,3.256712914E0,9.788693428E0
1.858417410E-1,3.214215636E-1,3.050811529E0,9.501389503E0
1.878400220E-1,3.214215636E-1,3.204040527E0,9.439140320E0
1.898383550E-1,3.645172119E-1,3.132214308E0,9.467870712E0
1.918367410E-1,3.549404144E-1,3.223194122E0,9.391256332E0
1.938351780E-1,4.171896577E-1,3.204040527E0,8.965087891E0
1.958336680E-1,4.171896577E-1,2.959831953E0,9.103952408E0
1.978321580E-1,5.656301379E-1,3.266289711E0,9.788693428E0
1.998306470E-1,5.512649417E-1,3.127425909E0,9.266757965E0
2.018291370E-1,6.087257862E-1,3.036446333E0,9.386467934E0
2.038276260E-1,6.470330358E-1,3.405153275E0,9.731232643E0
2.058261160E-1,6.278793812E-1,3.721188068E0,9.367314339E0
2.078246050E-1,5.273229480E-1,3.405153275E0,9.218873978E0
2.098228350E-1,4.507084787E-1,2.998139143E0,1.001853657E1
2.118210640E-1,5.416881442E-1,3.170521498E0,1.039203262E1
2.138192930E-1,5.704185367E-1,3.433883905E0,1.066018295E1
2.158175220E-1,5.464765429E-1,3.634996653E0,1.004247856E1
2.178157510E-1,5.368997455E-1,3.328538895E0,1.068891335E1
2.198139800E-1,5.560533404E-1,4.037222385E0,1.002332497E1
2.218122100E-1,4.507084787E-1,4.037222385E0,9.855731010E0
2.238104390E-1,4.171896577E-1,3.476979494E0,9.989806175E0
2.258086680E-1,3.980360329E-1,3.702034473E0,1.044949341E1
2.278068970E-1,4.028244317E-1,3.879205227E0,1.036330223E1
2.298051780E-1,3.932476342E-1,3.500921488E0,9.980229378E0
2.318035120E-1,4.219780564E-1,2.816179752E0,1.089481449E1
2.338018970E-1,3.357867897E-1,3.596689463E0,9.070432663E0
2.358003350E-1,3.980360329E-1,3.740341663E0,9.142259598E0
2.377988240E-1,4.219780564E-1,3.299808502E0,9.597157478E0
2.397973660E-1,4.124012291E-1,2.782660961E0,1.009036350E1
2.417959080E-1,4.028244317E-1,2.461838007E0,1.038245583E1
2.437944490E-1,4.554968774E-1,2.897582531E0,9.817423820E0
2.457929910E-1,4.219780564E-1,2.998139143E0,9.563638687E0
2.477915330E-1,3.740940094E-1,2.873640537E0,9.142259598E0
2.497900740E-1,3.788824081E-1,2.480991602E0,9.994594574E0
2.517886160E-1,4.028244317E-1,2.571971178E0,9.214085579E0
2.537871580E-1,4.171896577E-1,2.643797159E0,9.554061890E0
2.557856990E-1,4.890156984E-1,2.581547976E0,9.587580681E0
2.577840330E-1,4.507084787E-1,2.193687201E0,9.970652580E0
2.597823660E-1,4.219780564E-1,2.342127800E0,9.956287384E0
2.617806470E-1,4.028244317E-1,2.567182779E0,9.324218750E0
2.637789280E-1,3.932476342E-1,2.605489969E0,9.123106003E0
2.657772100E-1,3.501519859E-1,2.289455414E0,9.855731010E0
2.677754910E-1,3.549404144E-1,2.485780001E0,9.922768593E0
2.697737720E-1,2.974795699E-1,2.308609009E0,9.721655846E0
2.717720530E-1,2.926911712E-1,2.054823637E0,1.055962658E1
2.737703870E-1,2.879027426E-1,2.758718967E0,9.357737541E0
2.757687200E-1,3.214215636E-1,2.940678120E0,9.458293915E0
2.777670530E-1,3.309983909E-1,2.643797159E0,9.664195061E0
2.797653870E-1,3.214215636E-1,2.466626406E0,1.013824749E1
2.817637200E-1,4.028244317E-1,2.480991602E0,9.855731010E0
2.837620530E-1,4.315548539E-1,2.538452387E0,9.865307808E0
2.857603870E-1,4.554968774E-1,2.653373957E0,8.634688377E0
2.877587200E-1,5.033808947E-1,2.634220362E0,9.075222015E0
2.897570530E-1,6.374561787E-1,2.653373957E0,9.372102737E0
2.917553870E-1,5.416881442E-1,2.069188833E0,9.386467934E0
2.937537200E-1,5.895721912E-1,1.647809267E0,1.032499504E1
2.957520530E-1,6.135141850E-1,2.260725021E0,9.247604370E0
2.977503870E-1,5.847837925E-1,2.270301819E0,8.989029884E0
2.997487200E-1,5.368997455E-1,2.050035238E0,9.616311073E0
3.017470530E-1,5.129576921E-1,1.815403461E0,9.419986725E0
3.037453870E-1,4.650736749E-1,1.877652645E0,9.812635422E0
3.057437200E-1,5.416881442E-1,2.375646591E0,9.539696693E0
3.077420530E-1,5.129576921E-1,2.548029184E0,9.376891136E0
3.097403870E-1,3.309983909E-1,1.307832718E0,1.034893703E1
3.117387200E-1,3.836708367E-1,2.299032211E0,8.773551941E0
3.137370530E-1,5.273229480E-1,2.916736126E0,9.065644264E0
3.157353870E-1,4.938040972E-1,2.753930569E0,9.185355186E0
3.177337200E-1,3.118447661E-1,2.136226416E0,9.214085579E0
3.197320530E-1,1.873462796E-1,1.403600693E0,1.037766743E1
3.217301780E-1,2.208651006E-1,2.184110403E0,9.884461403E0
3.237283030E-1,2.400187254E-1,2.639008760E0,9.046490669E0
3.257264280E-1,1.155202314E-1,2.040458441E0,9.209297180E0
3.277242930E-1,8.200141042E-2,1.973420739E0,9.391256332E0
3.297221580E-1,6.763619930E-2,2.064400434E0,1.011430550E1
3.317200220E-1,1.298854351E-1,2.150591612E0,1.016218948E1
3.337178870E-1,-8.978256024E-3,1.791461468E0,9.190143585E0
3.357158030E-1,-7.601590455E-2,1.719635367E0,1.026753426E1
3.377137720E-1,1.975216344E-2,2.753930569E0,9.060855865E0
3.397117930E-1,-4.189853091E-3,2.294243813E0,8.668207169E0
3.417098660E-1,-1.855506375E-2,1.590348482E0,9.137471199E0
3.437079910E-1,6.763619930E-2,1.987785935E0,9.621099472E0
3.457061680E-1,1.921346933E-1,2.016516447E0,1.023401546E1
3.477043970E-1,1.442506462E-1,1.690904975E0,8.917203903E0
3.497026780E-1,1.777694821E-1,1.844133854E0,9.601945877E0
3.517010120E-1,2.735375464E-1,2.289455414E0,9.496601105E0
3.536993970E-1,1.490390599E-1,1.801038265E0,9.218873978E0
3.556978350E-1,1.921346933E-1,2.117072821E0,9.472659111E0
3.576962720E-1,2.495955229E-1,2.279878616E0,9.630676270E0
3.596947100E-1,6.284779310E-2,2.126649618E0,9.520543098E0
3.616931470E-1,1.681926697E-1,2.476203203E0,9.563638687E0
3.636915850E-1,1.059434265E-1,2.112284422E0,9.396044731E0
3.656900220E-1,6.284779310E-2,1.935113549E0,9.812635422E0
3.676881990E-1,7.721300423E-2,1.978209138E0,1.009994030E1
3.696863760E-1,8.678980917E-2,2.318185806E0,9.601945877E0
3.716845530E-1,1.538274586E-1,2.749142170E0,8.692149162E0
3.736827300E-1,1.681926697E-1,2.428318977E0,9.309853554E0
3.756809080E-1,1.634042710E-1,1.743577361E0,9.994594574E0
3.776790850E-1,2.208651006E-1,1.997362733E0,1.086608410E1
3.796772620E-1,1.873462796E-1,2.457049608E0,1.017176628E1
3.816754390E-1,8.678980917E-2,2.777872562E0,9.238027573E0
3.836736160E-1,-1.574187577E-1,2.452261209E0,8.596381187E0
3.856717930E-1,-1.478419602E-1,2.260725021E0,9.597157478E0
3.876699700E-1,-9.038111567E-2,2.677315950E0,9.664195061E0
3.896681470E-1,-4.728548229E-2,1.930325150E0,9.831789017E0
3.916663240E-1,-4.728548229E-2,1.643020868E0,1.045428181E1
3.936645010E-1,6.284779310E-2,2.591124773E0,1.049737740E1
3.956626780E-1,1.017535757E-2,2.294243813E0,8.620323181E0
3.976608550E-1,-5.207388848E-2,2.447472572E0,8.696937561E0
3.996590330E-1,-2.334346622E-2,2.581547976E0,9.410409927E0
4.016572100E-1,-4.728548229E-2,2.476203203E0,9.281123161E0
4.036553870E-1,-8.978256024E-3,1.781884670E0,1.001853657E1
4.056535640E-1,9.636662155E-2,2.097919226E0,1.014303589E1
4.076517410E-1,1.586158574E-1,2.447472572E0,9.142259598E0
4.096499180E-1,1.155202314E-1,1.863287449E0,9.812635422E0
4.116481470E-1,1.155202314E-1,1.609502077E0,1.082298851E1
4.136464280E-1,7.721300423E-2,2.088342428E0,1.007120991E1
4.156447620E-1,-4.249707982E-2,2.686892748E0,9.319430351E0
4.176430950E-1,-9.995792061E-2,2.548029184E0,9.654618263E0
4.196414800E-1,-1.143231317E-1,2.624643564E0,9.860519409E0
4.216398660E-1,-1.238999367E-1,2.888005733E0,9.300276756E0
4.236382510E-1,-2.334346622E-2,2.591124773E0,9.803058624E0
4.256366370E-1,-2.813187055E-2,2.490568399E0,1.033936024E1
4.276350220E-1,3.411737457E-2,2.342127800E0,1.047822380E1
4.296334080E-1,6.284779310E-2,2.390011787E0,1.070327854E1
4.316317930E-1,4.848258570E-2,2.169745207E0,1.076552773E1
4.336300220E-1,-9.516951442E-2,2.605489969E0,9.894038200E0
4.356280950E-1,-1.382651478E-1,2.586336374E0,9.788693428E0
4.376261680E-1,-2.292448133E-1,2.050035238E0,1.014782429E1
4.396242410E-1,-2.292448133E-1,2.581547976E0,1.028189945E1
4.416223140E-1,-2.771288455E-1,2.729988575E0,8.605957985E0
4.436203870E-1,-2.244564146E-1,1.992574334E0,1.018134308E1
4.456184600E-1,-2.244564146E-1,1.954267144E0,1.064102936E1
4.476165850E-1,-1.861491799E-1,2.078765631E0,9.850942612E0
4.496147620E-1,-1.717839688E-1,2.576759577E0,1.091875648E1
4.516129910E-1,-3.154360652E-1,3.357269287E0,7.681796074E0
4.536112720E-1,-3.728969097E-1,1.226429820E0,1.116296577E1
4.556096050E-1,-4.542997777E-1,6.230909824E-1,1.123479176E1
4.576079910E-1,-5.213374496E-1,1.815403461E0,1.063145256E1
4.596063760E-1,-6.027402878E-1,2.931101322E0,8.807070732E0
4.616048140E-1,-5.979518890E-1,3.156156301E0,8.754398346E0
4.636033030E-1,-6.841431260E-1,2.332551003E0,1.002811337E1
4.656017930E-1,-6.458359361E-1,1.695693374E0,1.051653099E1
4.676002830E-1,-7.751228213E-1,1.623867273E0,1.080383492E1
4.695987720E-1,-6.889315248E-1,2.442684174E0,9.750386238E0
4.715972620E-1,-7.655459642E-1,2.241571426E0,9.788693428E0
4.735957510E-1,-7.799112201E-1,2.179322004E0,8.706514359E0
4.755940850E-1,-7.080851793E-1,4.890156984E-1,1.090439129E1
4.775922100E-1,-7.368155718E-1,2.735375464E-1,1.017655468E1
4.795902830E-1,-6.649895310E-1,1.671751380E0,8.720879555E0
4.815883550E-1,-5.309142470E-1,1.485003591E0,9.161413193E0
4.835864280E-1,-4.207809567E-1,1.992574334E0,8.993818283E0
4.855845010E-1,-3.298012912E-1,1.451484799E0,9.491812706E0
4.875825740E-1,-2.819172442E-1,6.805518270E-1,1.052131939E1
4.895806470E-1,-2.436100245E-1,1.168969035E0,9.985017776E0
4.915787200E-1,-3.298012912E-1,2.514510393E0,7.820659637E0
4.935768450E-1,-3.824737072E-1,2.054823637E0,8.840589523E0
4.955750220E-1,-2.100912035E-1,3.022679687E-1,1.104804420E1
4.975732510E-1,-1.813607812E-1,-2.962824702E-1,1.194826317E1
4.995715330E-1,-2.867056429E-1,1.274313807E0,9.688137054E0
5.015698660E-1,-3.489548862E-1,2.605489969E0,8.060079575E0
5.035682510E-1,-2.819172442E-1,2.476203203E0,8.481459618E0
5.055666370E-1,-6.643909961E-2,6.709750295E-1,1.214458847E1
5.075650220E-1,-8.559270948E-2,3.262099922E-1,1.147421169E1
5.095634080E-1,-9.995792061E-2,1.192911029E0,9.817423820E0
5.115617930E-1,-1.430535465E-1,1.882441044E0,9.525331497E0
5.135601780E-1,-1.430535465E-1,2.667739153E0,8.122329712E0
5.155585640E-1,-9.038111567E-2,2.164956808E0,9.118317604E0
5.175569490E-1,9.636662155E-2,2.783259451E-1,1.267610073E1
5.195553350E-1,7.721300423E-2,-6.985083222E-1,1.304001999E1
5.215537200E-1,-1.047463268E-1,1.149815321E0,1.099537086E1
5.235521050E-1,-3.633201122E-1,2.653373957E0,8.716091156E0
5.255504910E-1,-4.351461530E-1,2.916736126E0,8.763975143E0
5.275488760E-1,-3.537433147E-1,1.949478745E0,1.098100567E1
5.295472100E-1,-2.867056429E-1,7.763199210E-1,1.229302883E1
5.315453350E-1,-3.920505345E-1,1.269525409E0,1.108635139E1
5.335434600E-1,-5.404910445E-1,2.471414804E0,8.242039680E0
5.355415850E-1,-5.021837950E-1,1.350928307E0,1.101452446E1
5.375397100E-1,-4.447229803E-1,1.634042710E-1,1.287721348E1
5.395378350E-1,-6.266822815E-1,6.278793812E-1,1.062187576E1
5.415359600E-1,-7.751228213E-1,1.580771685E0,9.491812706E0
5.435340850E-1,-8.086416125E-1,6.278793812E-1,1.129225254E1
5.455322100E-1,-8.565256596E-1,1.690904975E0,9.697713852E0
5.475303870E-1,-7.942764163E-1,1.432331204E0,9.836577415E0
5.495286160E-1,-8.373720646E-1,1.441908002E0,9.142259598E0
5.515268970E-1,-6.554127336E-1,5.464765429E-1,1.037766743E1
5.535252300E-1,-5.357026458E-1,-6.643909961E-2,1.069849014E1
5.555235640E-1,-4.303577542E-1,1.017535757E-2,1.058356857E1
5.575218970E-1,-4.734533727E-1,2.352303118E-1,9.970652580E0
5.595202300E-1,-5.596446395E-1,7.284358740E-1,9.319430351E0
5.615185640E-1,-6.218938828E-1,1.082777739E0,8.735244751E0
5.635169490E-1,-5.261258483E-1,3.549404144E-1,9.635464668E0
5.655153350E-1,-3.920505345E-1,4.459200799E-1,1.022922707E1
5.675137200E-1,-3.537433147E-1,3.070563674E-1,9.654618263E0
5.695121050E-1,-2.771288455E-1,6.763619930E-2,9.836577415E0
5.715104910E-1,-3.776853085E-1,7.721300423E-2,9.874884605E0
5.735088760E-1,-3.393780887E-1,7.721300423E-2,9.755174637E0
5.755072620E-1,-1.765723825E-1,-2.483984232E-1,1.014782429E1
5.775056470E-1,-1.095347255E-1,-9.858125448E-1,1.127309895E1
5.795040330E-1,-2.148796022E-1,1.619078875E0,7.442376137E0
5.815024180E-1,-1.526303589E-1,1.949478745E0,8.558073997E0
5.835008030E-1,2.208651006E-1,-1.143829823E0,1.171842003E1
5.854991890E-1,1.107318252E-1,-1.076792240E0,1.144069290E1
5.874976260E-1,9.636662155E-2,-6.554127336E-1,1.080383492E1
5.894961160E-1,1.155202314E-1,1.020528436E0,8.701725960E0
5.914946580E-1,5.985504249E-4,1.719635367E0,8.189367294E0
5.934932510E-1,6.763619930E-2,1.240795016E0,9.448717117E0
5.954918450E-1,2.208651006E-1,1.384447098E0,8.716091156E0
5.974904390E-1,4.219780564E-1,-1.072003841E0,1.207276249E1
5.994890330E-1,4.507084787E-1,-1.445499301E0,1.177588081E1
6.014876260E-1,2.543839216E-1,-3.154360652E-1,1.004247856E1
6.034862200E-1,8.678980917E-2,2.088342428E0,7.360973358E0
6.054848140E-1,1.346738487E-1,2.059612036E0,7.207744122E0
6.074834080E-1,3.836708367E-1,-1.526303589E-1,1.023880386E1
6.094820010E-1,4.890156984E-1,-7.990648150E-1,1.124436855E1
6.114805950E-1,4.554968774E-1,4.315548539E-1,9.391256332E0
6.134791890E-1,4.411316514E-1,-8.517372608E-1,1.050695419E1
6.154777830E-1,3.740940094E-1,-9.427168965E-1,9.769539833E0
6.174763240E-1,2.064998895E-1,9.822212458E-1,8.428787231E0
6.194748660E-1,1.155202314E-1,2.231994629E0,6.824671745E0
6.214733030E-1,1.873462796E-1,-3.824737072E-1,1.002332497E1
6.234717410E-1,3.357867897E-1,-1.316212416E0,1.116775417E1
6.254701780E-1,3.309983909E-1,-8.469488621E-1,1.015261269E1
6.274686160E-1,2.400187254E-1,9.636662155E-2,9.051279068E0
6.294670530E-1,1.203086376E-1,2.304419130E-1,9.453505516E0
6.314654910E-1,-4.728548229E-2,1.010951638E0,8.031349182E0
6.334639280E-1,1.011550203E-1,-1.861491799E-1,1.053089619E1
6.354623660E-1,7.242459804E-2,-1.000177741E0,1.080383492E1
6.374608030E-1,-9.038111567E-2,1.173757434E0,8.352172852E0
6.394592930E-1,-1.382651478E-1,1.030105233E0,8.577227592E0
6.414578350E-1,-1.376665942E-2,7.523778677E-1,9.118317604E0
6.434564280E-1,-4.249707982E-2,1.221641421E0,8.960299492E0
6.454550740E-1,6.284779310E-2,-1.407191992E0,1.135929012E1
6.474537720E-1,5.805939063E-2,-8.421604633E-1,1.070806694E1
6.494524700E-1,-2.053027898E-1,6.997054219E-1,8.064867973E0
6.514511680E-1,-2.292448133E-1,1.140238523E0,8.467094421E0
6.534498660E-1,4.369417951E-2,-1.215655923E0,1.090917969E1
6.554485640E-1,5.327098817E-2,-2.226009130E0,1.102888966E1
6.574472620E-1,7.242459804E-2,-8.325836658E-1,9.558850288E0
6.594459600E-1,-1.286883354E-1,3.074753523E0,6.068104267E0
6.614446580E-1,4.848258570E-2,1.465849996E0,7.605181694E0
6.634433550E-1,3.788824081E-1,-3.345896900E-1,1.004726696E1
6.654420530E-1,4.411316514E-1,-1.009754539E0,9.855731010E0
6.674406990E-1,6.326677799E-1,-1.416768909E0,1.048301220E1
6.694393450E-1,5.656301379E-1,-9.618705511E-1,9.736021042E0
6.714378870E-1,5.033808947E-1,2.926911712E-1,8.615534782E0
6.734363240E-1,4.602852762E-1,-9.516951442E-2,8.864531517E0
6.754346580E-1,5.752069354E-1,-2.254739523E0,1.202966690E1
6.774329910E-1,4.698620737E-1,-1.191115379E-1,9.017760277E0
6.794313240E-1,3.214215636E-1,2.734776974E0,5.737704277E0
6.814296580E-1,7.428010702E-1,3.890577704E-2,1.027232265E1
6.834279910E-1,9.295488000E-1,-1.536478996E0,1.199614716E1
6.854263240E-1,8.577227592E-1,4.698620737E-1,9.573215485E0
6.874247100E-1,9.295488000E-1,9.636662155E-2,9.089587212E0
6.894231470E-1,8.864531517E-1,-7.032967210E-1,1.065060616E1
6.914216370E-1,1.025316834E0,-8.373720646E-1,1.162744045E1
6.934201780E-1,7.332242727E-1,1.346139908E0,7.945158482E0
6.954187720E-1,8.146271110E-1,6.757634282E-1,9.812635422E0
6.974174180E-1,7.906851172E-1,8.002619147E-1,9.831789017E0
6.994161160E-1,7.332242727E-1,2.318185806E0,8.242039680E0
7.014148660E-1,1.006163239E0,-1.761533856E0,1.268567753E1
7.034136680E-1,1.125873327E0,-2.891597033E0,1.511818695E1
7.054125220E-1,6.805518270E-1,8.289923668E-1,8.558073997E0
7.074114280E-1,5.368997455E-1,2.370858192E0,8.036137581E0
7.094103870E-1,5.273229480E-1,2.749142170E0,8.084021568E0
7.114093450E-1,5.752069354E-1,4.171896577E-1,1.133534813E1
7.134083030E-1,6.805518270E-1,2.831143439E-1,1.063145256E1
7.154072620E-1,9.056068063E-1,-1.167771935E0,1.244625759E1
7.174062200E-1,7.523778677E-1,1.346738487E-1,1.054047298E1
7.194049700E-1,6.374561787E-1,9.103952050E-1,9.841365814E0
7.214033030E-1,3.693056107E-1,7.954735160E-1,9.194931984E0
7.234016370E-1,3.549404144E-1,2.352303118E-1,9.917980194E0
7.253999700E-1,2.926911712E-1,-6.985083222E-1,1.236964321E1
7.273983030E-1,2.160767019E-1,1.585560083E0,8.514978409E0
7.293966370E-1,6.284779310E-2,9.056068063E-1,9.362525940E0
7.313949700E-1,9.157821536E-2,-2.813187055E-2,1.019091988E1
7.333933030E-1,1.394622475E-1,3.411737457E-2,9.788693428E0
7.353916370E-1,2.017114908E-1,-1.512536883E0,1.171363163E1
7.373899700E-1,2.454056777E-2,-4.207809567E-1,1.086608410E1
7.393883030E-1,-1.526303589E-1,2.160168409E0,6.915651798E0
7.413866370E-1,-8.559270948E-2,1.240795016E0,8.682572365E0
7.433849700E-1,1.017535757E-2,-3.776853085E-1,1.080862331E1
7.453833030E-1,1.496376097E-2,-4.207809567E-1,1.021965027E1
7.473816370E-1,3.262099922E-1,-2.278681517E0,1.258033276E1
7.493799700E-1,1.681926697E-1,-1.172560334E0,1.043033981E1
7.513783030E-1,-2.005143911E-1,1.058835745E0,7.566874504E0
7.533766370E-1,-3.154360652E-1,1.935113549E0,6.580463409E0
7.553749700E-1,-2.531868219E-1,3.884592354E-1,9.012971878E0
7.573733030E-1,-9.516951442E-2,-1.871667147E0,1.145026970E1
7.593716890E-1,1.017535757E-2,-2.388814688E0,1.192910957E1
7.613701260E-1,-2.053027898E-1,-2.675520480E-1,8.309077263E0
7.633686160E-1,-1.478419602E-1,-1.622071713E-1,8.481459618E0
7.653671580E-1,-1.047463268E-1,-7.463923693E-1,9.065644264E0
7.673657510E-1,-2.005143911E-1,-1.929128051E0,1.099058247E1
7.693643970E-1,-1.286883354E-1,-8.900445104E-1,9.151836395E0
7.713630430E-1,-2.436100245E-1,3.022679687E-1,7.380126953E0
7.733616890E-1,-1.765723825E-1,-1.028908134E0,8.965087891E0
7.753603350E-1,1.975216344E-2,-2.901173830E0,1.172320843E1
7.773589800E-1,-4.189853091E-3,-1.775899053E0,9.798270226E0
7.793573140E-1,-3.770867735E-2,-8.230068088E-1,8.333019257E0
7.813556470E-1,-1.813607812E-1,-1.855506375E-2,7.758410454E0
7.833539280E-1,-2.579752207E-1,8.289923668E-1,7.030573368E0
7.853522100E-1,-1.717839688E-1,9.582792521E-1,7.404068947E0
7.873504910E-1,1.394622475E-1,-2.249951124E0,1.083256531E1
7.893487720E-1,1.921346933E-1,-3.308188200E0,1.150294209E1
7.913470530E-1,1.777694821E-1,-4.294599533E0,1.288200188E1
7.933453350E-1,-8.080431074E-2,2.064998895E-1,7.159860134E0
7.953436160E-1,-3.154360652E-1,1.394023895E0,5.981913090E0
7.973418970E-1,-2.819172442E-1,2.255936623E0,6.930016994E0
7.993401780E-1,-9.995792061E-2,1.231218219E0,7.293935299E0
8.013384600E-1,3.788824081E-1,-3.485359192E0,1.208712769E1
8.033367410E-1,6.805518270E-1,-4.653729439E0,1.279102230E1
8.053350740E-1,4.219780564E-1,-2.838924646E0,1.012867069E1
8.073334080E-1,2.112883031E-1,4.124012291E-1,6.925228596E0
8.093317930E-1,1.346738487E-1,1.901594758E0,6.159083843E0
8.113302300E-1,3.118447661E-1,-4.207809567E-1,9.214085579E0
8.133287200E-1,5.368997455E-1,-1.167771935E0,1.010472870E1
8.153272620E-1,4.794389009E-1,-1.253963113E0,1.091396809E1
8.173258030E-1,5.656301379E-1,-1.292270422E0,1.005205631E1
8.193243450E-1,3.788824081E-1,7.571662664E-1,7.777564049E0
8.213228870E-1,4.650736749E-1,1.068412542E0,8.179790497E0
8.233214280E-1,5.129576921E-1,6.039373875E-1,8.601169586E0
8.253199700E-1,7.475894690E-1,-2.024896145E0,1.156040287E1
8.273185120E-1,7.188590765E-1,-1.977012038E0,1.217810726E1
8.293170530E-1,5.464765429E-1,-2.244564146E-1,9.209297180E0
8.313155950E-1,4.267664552E-1,4.369417951E-2,9.506177902E0
8.333139800E-1,1.969230920E-1,2.021304846E0,7.250839710E0
8.353122620E-1,2.112883031E-1,1.087566137E0,8.601169586E0
8.373105430E-1,5.656301379E-1,-2.221220732E0,1.267131233E1
8.393087720E-1,5.321113467E-1,-1.986588836E0,1.218768406E1
8.413067930E-1,3.597288132E-1,5.464765429E-1,8.720879555E0
8.433047620E-1,2.974795699E-1,1.580771685E0,8.103176117E0
8.453027300E-1,2.974795699E-1,4.267664552E-1,9.075222015E0
8.473006990E-1,3.549404144E-1,4.848258570E-2,9.281123161E0
8.492986680E-1,4.746504724E-1,-1.268328309E0,1.084693050E1
8.512966370E-1,4.698620737E-1,-1.512536883E0,1.079425812E1
8.532946050E-1,4.746504724E-1,-7.032967210E-1,1.016697788E1
8.552925740E-1,2.735375464E-1,4.315548539E-1,8.414422035E0
8.572905430E-1,3.070563674E-1,-3.202244639E-1,9.731232643E0
8.592885120E-1,3.262099922E-1,-2.292448133E-1,9.654618263E0
8.612865330E-1,2.687491477E-1,5.847837925E-1,8.395268440E0
8.632846050E-1,3.022679687E-1,-6.889315248E-1,9.458293915E0
8.652827300E-1,3.788824081E-1,-1.828571558E0,1.110550499E1
8.672809080E-1,4.219780564E-1,-2.345719099E0,1.111508179E1
8.692791370E-1,2.735375464E-1,-1.239597917E0,9.692925453E0
8.712774180E-1,1.394622475E-1,3.453635871E-1,8.007407188E0
8.732757510E-1,3.411737457E-2,5.656301379E-1,7.595604897E0
8.752740850E-1,1.250970364E-1,-3.058592677E-1,9.242815971E0
8.772724180E-1,3.740940094E-1,-1.239597917E0,1.011909389E1
8.792707510E-1,5.177460909E-1,-2.925115824E0,1.207276249E1
8.812690850E-1,2.543839216E-1,6.230909824E-1,7.389703751E0
8.832674180E-1,2.256535143E-1,1.437119603E0,6.609193802E0
8.852657510E-1,2.974795699E-1,6.566098332E-1,7.844601631E0
8.872640850E-1,4.554968774E-1,-7.990648150E-1,9.798270226E0
8.892624180E-1,6.374561787E-1,-2.647388458E0,1.176151562E1
8.912605950E-1,5.129576921E-1,-1.957858443E0,1.018613148E1
8.932587720E-1,5.321113467E-1,-8.900445104E-1,9.070432663E0
8.952569490E-1,3.597288132E-1,8.960300088E-1,7.413645744E0
8.972551260E-1,4.124012291E-1,-5.644330382E-1,9.070432663E0
8.992533030E-1,6.374561787E-1,-1.842936754E0,1.195305157E1
9.012514800E-1,5.177460909E-1,-8.996213078E-1,1.087566090E1
9.032496580E-1,4.746504724E-1,7.236474752E-1,9.137471199E0
9.052478350E-1,4.794389009E-1,9.965864420E-1,9.209297180E0
9.072458550E-1,5.033808947E-1,1.073200941E0,1.004247856E1
9.092438760E-1,7.906851172E-1,-1.430535465E-1,1.188122559E1
9.112418450E-1,9.103952050E-1,-3.681085110E-1,1.238879681E1
9.132398140E-1,7.523778677E-1,5.991489887E-1,1.055962658E1
9.152377830E-1,5.512649417E-1,6.374561787E-1,1.017176628E1
9.172357510E-1,6.805518270E-1,-9.858125448E-1,1.192432117E1
9.192337200E-1,7.763199210E-1,-8.469488621E-1,1.110550499E1
9.212316890E-1,6.087257862E-1,1.255160213E0,7.868544102E0
9.232296580E-1,6.183025837E-1,1.906383157E0,7.753622055E0
9.252276260E-1,8.289923668E-1,-1.861491799E-1,1.013345909E1
9.272256470E-1,1.101931334E0,-2.551620483E0,1.339436150E1
9.292237200E-1,1.116296530E0,-1.000177741E0,1.066018295E1
9.312218450E-1,9.965864420E-1,4.650736749E-1,8.869319916E0
9.332200220E-1,1.020528436E0,4.171896577E-1,8.864531517E0
9.352182510E-1,1.106719732E0,-5.069721937E-1,1.055483818E1
9.372165330E-1,1.092354536E0,-9.618705511E-1,1.058356857E1
9.392148660E-1,1.159392118E0,-1.526902080E0,1.136886692E1
9.412132510E-1,1.121084929E0,-6.506243348E-1,9.783905029E0
9.432116370E-1,9.870096445E-1,4.411316514E-1,7.997830868E0
9.452100220E-1,8.960300088E-1,-3.872621357E-1,9.295488358E0
9.472084080E-1,9.247604012E-1,-2.962824702E-1,9.582792282E0
9.492067930E-1,1.063624144E0,-1.407191992E0,1.097621727E1
9.512051780E-1,1.116296530E0,-1.431134105E0,1.114381218E1
9.532035640E-1,8.529343605E-1,8.433575630E-1,8.773551941E0
9.552019490E-1,8.337807655E-1,2.591723204E-1,9.683348656E0
9.572003350E-1,8.720879555E-1,-1.526902080E0,1.144548130E1
9.591987200E-1,7.571662664E-1,-8.230068088E-1,1.115338898E1
9.611971050E-1,7.044938207E-1,5.656301379E-1,9.549273491E0
9.631952830E-1,6.374561787E-1,9.678560495E-1,9.041702271E0
9.651934600E-1,6.566098332E-1,2.064998895E-1,9.568427086E0
9.671916370E-1,6.326677799E-1,8.200141042E-2,1.058835697E1
9.691897620E-1,6.805518270E-1,1.777694821E-1,9.927556992E0
9.711878350E-1,5.847837925E-1,-1.669955701E-1,9.697713852E0
9.731859080E-1,5.608417392E-1,-4.016273320E-1,9.367314339E0
9.751839800E-1,5.368997455E-1,-4.016273320E-1,9.712079048E0
9.771820530E-1,5.752069354E-1,-5.596446395E-1,1.010472870E1
9.791801260E-1,5.991489887E-1,-9.379284978E-1,9.759963036E0
9.811781990E-1,5.704185367E-1,-8.978256024E-3,8.471882820E0
9.831762720E-1,6.039373875E-1,4.076128304E-1,7.902062893E0
9.851743970E-1,7.380126715E-1,-3.489548862E-1,9.592369080E0
9.871725740E-1,8.098387122E-1,-7.128735781E-1,1.024359226E1
9.891708030E-1,8.816647530E-1,-1.680131078E0,1.159392166E1
9.911690850E-1,8.864531517E-1,-9.091981053E-1,1.024838066E1
9.931674180E-1,8.960300088E-1,9.636662155E-2,7.993042469E0
9.951658030E-1,8.960300088E-1,-5.883750916E-1,9.305065155E0
9.971642410E-1,9.534908533E-1,-1.048061848E0,1.038245583E1
9.991626780E-1,1.034893632E0,-8.708908558E-1,9.975440979E0
1.001161116E0,1.092354536E0,-1.277905107E0,1.018613148E1
1.003159553E0,1.101931334E0,-8.708908558E-1,8.601169586E0
1.005157730E0,1.437119603E0,-9.038111567E-2,9.439140320E0
1.007155855E0,1.370081902E0,-4.542997777E-1,9.688137054E0
1.009153980E0,1.470638394E0,-8.469488621E-1,1.104804420E1
1.011151949E0,1.532887697E0,-6.458359361E-1,1.018134308E1
1.013149918E0,1.547252893E0,-3.292027488E-2,9.601945877E0
1.015147887E0,1.475426793E0,1.346738487E-1,9.271546364E0
1.017145855E0,1.437119603E0,3.980360329E-1,9.415198326E0
1.019143824E0,1.384447098E0,1.298854351E-1,9.970652580E0
1.021141793E0,1.379658699E0,-4.255693555E-1,1.104325581E1
1.023139814E0,1.355716705E0,-4.878185987E-1,1.028668785E1
1.025137887E0,1.288679123E0,-3.776853085E-1,9.630676270E0
1.027136012E0,1.212064624E0,-5.596446395E-1,9.913191795E0
1.029134189E0,1.092354536E0,-1.622071713E-1,9.084798813E0
1.031132418E0,1.025316834E0,-4.782418013E-1,9.592369080E0
1.033130699E0,1.030105233E0,-1.344942808E0,1.015740108E1
1.035129085E0,1.025316834E0,-1.230021119E0,1.036809063E1
1.037127522E0,8.625111580E-1,-3.681085110E-1,9.051279068E0
1.039126012E0,7.811083198E-1,2.454056777E-2,8.864531517E0
1.041124553E0,7.811083198E-1,5.704185367E-1,8.122329712E0
1.043123147E0,7.763199210E-1,-9.038111567E-2,9.391256332E0
1.045121793E0,8.768763542E-1,-8.565256596E-1,1.087087250E1
1.047120439E0,8.625111580E-1,-4.638765752E-1,1.062666416E1
1.049119085E0,7.667431235E-1,-4.782418013E-1,9.683348656E0
1.051117730E0,7.523778677E-1,-2.579752207E-1,8.438364029E0
1.053116376E0,6.757634282E-1,-4.782418013E-1,8.811859131E0
1.055115022E0,7.236474752E-1,-5.213374496E-1,9.764751434E0
1.057113564E0,8.098387122E-1,-5.021837950E-1,9.386467934E0
1.059111949E0,8.720879555E-1,-6.123170853E-1,9.094375610E0
1.061110335E0,8.672995567E-1,-5.883750916E-1,9.333795547E0
1.063108564E0,8.481459618E-1,-1.172560334E0,1.098100567E1
1.065106793E0,8.002619147E-1,-6.027402878E-1,9.807847023E0
1.067105022E0,7.332242727E-1,1.011550203E-1,8.883685112E0
1.069103251E0,7.475894690E-1,2.352303118E-1,9.242815971E0
1.071101480E0,7.092822790E-1,-2.723404467E-1,1.024838066E1
1.073099710E0,7.475894690E-1,-5.261258483E-1,1.048780060E1
1.075097939E0,6.661866307E-1,-3.345896900E-1,9.381679535E0
1.077096168E0,5.895721912E-1,-3.537433147E-1,9.726444244E0
1.079094397E0,6.183025837E-1,-1.717839688E-1,9.544485092E0
1.081092626E0,6.613982320E-1,-8.559270948E-2,9.434351921E0
1.083090855E0,6.518214345E-1,-2.867056429E-1,9.975440979E0
1.085089085E0,7.523778677E-1,-5.357026458E-1,1.014303589E1
1.087087314E0,7.571662664E-1,-2.196680009E-1,9.836577415E0
1.089085543E0,6.613982320E-1,-3.010708690E-1,1.005684471E1
1.091083772E0,6.613982320E-1,1.059434265E-1,9.463082314E0
1.093082001E0,6.566098332E-1,-7.122749835E-2,9.520543098E0
1.095080230E0,6.230909824E-1,-2.005143911E-1,1.001853657E1
1.097078460E0,5.991489887E-1,-1.095347255E-1,9.563638687E0
1.099076689E0,5.368997455E-1,2.208651006E-1,9.372102737E0
1.101074918E0,6.757634282E-1,3.549404144E-1,9.271546364E0
1.103073147E0,8.289923668E-1,-1.191115379E-1,1.028668785E1
1.105071376E0,8.481459618E-1,-2.531868219E-1,1.066975975E1
1.107069605E0,7.811083198E-1,-3.681085110E-1,1.041118622E1
1.109067835E0,7.906851172E-1,1.969230920E-1,9.338583946E0
1.111066064E0,7.571662664E-1,-9.038111567E-2,9.764751434E0
1.113064293E0,8.529343605E-1,-4.830302000E-1,1.011430550E1
1.115062522E0,1.039682031E0,-1.330577612E0,1.168490124E1
1.117060751E0,8.433575630E-1,-5.207388848E-2,9.281123161E0
1.119058980E0,5.608417392E-1,1.106719732E0,7.399280548E0
1.121057158E0,5.799953341E-1,3.836708367E-1,8.495824814E0
1.123055126E0,6.470330358E-1,-7.032967210E-1,1.116775417E1
1.125052887E0,7.715315223E-1,-7.511807680E-1,1.035372543E1
1.127050647E0,7.523778677E-1,-4.207809567E-1,9.980229378E0
1.129048408E0,7.140706778E-1,-1.191115379E-1,8.763975143E0
1.131046168E0,7.763199210E-1,-6.123170853E-1,9.601945877E0
1.133043928E0,7.380126715E-1,-3.920505345E-1,8.850166321E0
1.135041741E0,7.667431235E-1,-9.235633016E-1,1.015261269E1
1.137039605E0,7.763199210E-1,-5.309142470E-1,9.539696693E0
1.139037522E0,9.151836038E-1,-5.686229095E-2,8.826224327E0
1.141035491E0,8.672995567E-1,-3.585317135E-1,9.989806175E0
1.143033512E0,7.140706778E-1,-1.268328309E0,1.040639782E1
1.145031585E0,7.523778677E-1,-1.421557307E0,1.086608410E1
1.147029710E0,5.991489887E-1,-4.782418013E-1,9.118317604E0
1.149027887E0,6.709750295E-1,-6.165069342E-2,8.826224327E0
1.151026116E0,5.129576921E-1,-5.021837950E-1,9.510966301E0
1.153024397E0,4.459200799E-1,-1.263539910E0,1.000895977E1
1.155022730E0,3.693056107E-1,-1.344942808E0,9.917980194E0
1.157021116E0,4.842272997E-1,-1.201290727E0,9.621099472E0
1.159019553E0,5.177460909E-1,-1.263539910E0,1.042555141E1
1.161018043E0,6.183025837E-1,-5.261258483E-1,8.984241486E0
1.163016533E0,6.183025837E-1,-1.139041424E0,1.044949341E1
1.165015022E0,5.656301379E-1,-1.201290727E0,1.018613148E1
1.167013512E0,4.076128304E-1,-1.258751512E0,1.007120991E1
1.169012001E0,3.453635871E-1,-1.660977483E0,1.066975975E1
1.171010491E0,3.309983909E-1,-2.053027898E-1,7.394492149E0
1.173008980E0,3.740940094E-1,-5.165489912E-1,8.802282333E0
1.175007158E0,5.273229480E-1,-1.684919477E0,1.059314537E1
1.177005335E0,4.602852762E-1,-2.934692621E0,1.240795040E1
1.179003512E0,2.304419130E-1,-2.154182911E0,1.069849014E1
1.181001689E0,1.969230920E-1,-1.258751512E0,8.840589523E0
1.182999866E0,1.969230920E-1,-6.458359361E-1,8.457517624E0
1.184998043E0,3.597288132E-1,-6.602011323E-1,8.553285599E0
1.186996220E0,3.884592354E-1,-1.445499301E0,1.000417137E1
1.188994397E0,3.309983909E-1,-2.216432333E0,1.111508179E1
1.190992574E0,2.591723204E-1,-2.029684544E0,1.033936024E1
1.192990751E0,3.166331649E-1,-1.565209389E0,9.142259598E0
1.194988928E0,8.678980917E-2,-1.244386315E0,8.653841972E0
1.196987105E0,1.017535757E-2,-1.818994761E0,9.975440979E0
1.198985283E0,1.017535757E-2,-1.670554280E0,8.874108315E0
1.200983460E0,-8.978256024E-3,-2.163759708E0,9.898826599E0
1.202981637E0,6.763619930E-2,-1.881243944E0,1.005684471E1
1.204979814E0,5.327098817E-2,-1.316212416E0,8.634688377E0
1.206977991E0,-3.770867735E-2,-1.943493247E0,9.759963036E0
1.208976168E0,-5.207388848E-2,-2.589927673E0,1.046864700E1
1.210974345E0,-1.430535465E-1,-1.905186057E0,9.788693428E0
1.212972522E0,-7.601590455E-2,-1.536478996E0,9.108740807E0
1.214970699E0,-6.643909961E-2,-1.531690478E0,9.477447510E0
1.216968876E0,4.369417951E-2,-1.459864497E0,9.338583946E0
1.218967053E0,1.011550203E-1,-2.163759708E0,1.048301220E1
1.220965230E0,1.777694821E-1,-1.292270422E0,9.113529205E0
1.222963408E0,2.352303118E-1,-1.220444322E0,8.783128738E0
1.224961585E0,3.932476342E-1,-1.694496274E0,9.491812706E0
1.226959710E0,4.602852762E-1,-2.053626537E0,1.093791008E1
1.228957835E0,3.980360329E-1,-1.301847219E0,8.495824814E0
1.230955960E0,3.453635871E-1,-2.316988707E0,1.044470501E1
1.232954085E0,3.549404144E-1,-2.508524895E0,1.074158573E1
1.234952210E0,3.405751884E-1,-2.111087322E0,1.009036350E1
1.236950335E0,3.597288132E-1,-1.421557307E0,8.850166321E0
1.238948460E0,3.405751884E-1,-8.756792545E-1,8.304288864E0
1.240946585E0,3.405751884E-1,-1.215655923E0,9.209297180E0
1.242944710E0,3.166331649E-1,-2.125452518E0,1.151251888E1
1.244942835E0,3.166331649E-1,-2.570774078E0,1.083256531E1
1.246940960E0,3.549404144E-1,-1.474229693E0,9.405621529E0
1.248939085E0,3.501519859E-1,-9.427168965E-1,8.740033150E0
1.250937262E0,1.059434265E-1,-2.010530949E0,9.692925453E0
1.252935491E0,2.017114908E-1,-1.546055794E0,9.510966301E0
1.254933772E0,2.687491477E-1,-1.426345706E0,9.477447510E0
1.256932105E0,1.825578809E-1,-1.852513552E0,1.026274586E1
1.258930491E0,4.848258570E-2,-2.034472942E0,1.045907021E1
1.260928928E0,5.985504249E-4,-1.665765882E0,9.731232643E0
1.262927418E0,-1.191115379E-1,-1.541267395E0,9.846154213E0
1.264925908E0,-1.526303589E-1,-1.713649869E0,1.028668785E1
1.266924397E0,-1.765723825E-1,-1.234809518E0,8.380903244E0
1.268922887E0,-2.436100245E-1,-1.622670174E0,9.391256332E0
1.270921376E0,-3.728969097E-1,-2.340930700E0,1.123479176E1
1.272919866E0,-5.165489912E-1,-2.245162725E0,1.014303589E1
1.274918199E0,-5.165489912E-1,-1.742380261E0,9.329007149E0
1.276916533E0,-6.602011323E-1,-1.694496274E0,8.898050308E0
1.278914866E0,-6.793547273E-1,-1.297058821E0,9.247604370E0
1.280913199E0,-6.506243348E-1,-1.469441295E0,9.448717117E0
1.282911533E0,-6.649895310E-1,-2.077568531E0,1.055004978E1
1.284909866E0,-7.272387743E-1,-1.972223639E0,1.012388229E1
1.286908199E0,-7.703344226E-1,-1.502960086E0,9.113529205E0
1.288906533E0,-7.416039705E-1,-1.115099430E0,8.835801125E0
1.290904866E0,-7.894880176E-1,-1.742380261E0,9.879673004E0
1.292903199E0,-7.368155718E-1,-2.087145329E0,1.024838066E1
1.294901533E0,-5.692214370E-1,-1.713649869E0,1.008078671E1
1.296899866E0,-5.261258483E-1,-1.565209389E0,9.185355186E0
1.298898199E0,-5.548562407E-1,-1.704073071E0,9.913191795E0
1.300896533E0,-5.500678420E-1,-1.608304977E0,9.769539833E0
1.302894866E0,-6.075286865E-1,-1.536478996E0,9.381679535E0
1.304893199E0,-5.787982345E-1,-1.297058821E0,9.166201591E0
1.306891533E0,-4.542997777E-1,-1.196502328E0,9.194931984E0
1.308889866E0,-3.633201122E-1,-1.407191992E0,9.601945877E0
1.310888199E0,-2.675520480E-1,-1.842936754E0,1.072722054E1
1.312886585E0,-3.345896900E-1,-2.115875721E0,1.024838066E1
1.314885022E0,-3.345896900E-1,-2.369661093E0,1.024359226E1
1.316883512E0,-4.064157307E-1,-1.579574585E0,9.472659111E0
1.318882053E0,-5.309142470E-1,-1.569997787E0,9.539696693E0
1.320880595E0,-5.069721937E-1,-1.230021119E0,9.108740807E0
1.322879137E0,-3.776853085E-1,-1.024119735E0,9.587580681E0
1.324877678E0,-4.399345517E-1,-1.756745458E0,9.309853554E0
1.326876220E0,-3.776853085E-1,-1.234809518E0,8.763975143E0
1.328874762E0,-2.196680009E-1,-1.263539910E0,9.223662376E0
1.330873303E0,-1.574187577E-1,-2.115875721E0,1.001374817E1
1.332871845E0,-1.669955701E-1,-3.188478231E0,1.112944698E1
1.334870387E0,-2.962824702E-1,-2.843713045E0,1.021486187E1
1.336868928E0,-4.399345517E-1,-2.475006104E0,9.151836395E0
1.338867470E0,-5.548562407E-1,-2.115875721E0,8.610746384E0
1.340866012E0,-5.883750916E-1,-1.704073071E0,8.131906509E0
1.342864553E0,-5.596446395E-1,-1.895609140E0,9.022548676E0
1.344863095E0,-4.590881765E-1,-2.762310266E0,1.047343540E1
1.346861637E0,-4.112041295E-1,-3.135805607E0,1.114381218E1
1.348860178E0,-3.393780887E-1,-2.388814688E0,9.405621529E0
1.350858720E0,-3.633201122E-1,-2.000954151E0,8.471882820E0
1.352857262E0,-4.303577542E-1,-2.407968283E0,1.030105305E1
1.354855803E0,-5.069721937E-1,-2.786252260E0,1.046864700E1
1.356854137E0,-5.787982345E-1,-2.805405855E0,1.003290176E1
1.358852210E0,-6.745663285E-1,-2.637811661E0,9.640253067E0
1.360850283E0,-6.649895310E-1,-2.676118851E0,9.405621529E0
1.362848355E0,-6.218938828E-1,-2.743156672E0,9.233239174E0
1.364846428E0,-6.458359361E-1,-3.245939016E0,9.678560257E0
1.366844501E0,-7.416039705E-1,-3.806182146E0,1.120606136E1
1.368842574E0,-7.751228213E-1,-3.494935989E0,1.069370174E1
1.370840647E0,-8.277952671E-1,-2.633023262E0,8.352172852E0
1.372838720E0,-9.475052953E-1,-3.016095638E0,8.682572365E0
1.374836793E0,-9.187749028E-1,-3.212420225E0,9.985017776E0
1.376834918E0,-9.475052953E-1,-3.375225782E0,1.005205631E1
1.378833095E0,-9.283517003E-1,-3.609857559E0,1.048301220E1
1.380831324E0,-1.000177741E0,-3.719990969E0,1.018613148E1
1.382829605E0,-1.043273449E0,-3.806182146E0,9.812635422E0
1.384827939E0,-1.201290727E0,-3.523666382E0,9.041702271E0
1.386826324E0,-1.220444322E0,-3.676895142E0,9.386467934E0
1.388824762E0,-1.182137132E0,-3.380014181E0,9.578003883E0
1.390823251E0,-1.230021119E0,-3.782240152E0,1.033457184E1
1.392821793E0,-1.177348733E0,-3.538031578E0,9.611522675E0
1.394820335E0,-1.148618221E0,-3.763086557E0,9.894038200E0
1.396818876E0,-1.124676228E0,-3.590703964E0,9.185355186E0
1.398817418E0,-1.000177741E0,-3.561973572E0,9.870096207E0
1.400815960E0,-8.756792545E-1,-3.916315317E0,9.716867447E0
1.402814501E0,-7.751228213E-1,-3.873219728E0,9.525331497E0
1.404813043E0,-6.985083222E-1,-3.461417198E0,8.974664688E0
1.406811585E0,-6.027402878E-1,-3.308188200E0,8.663418770E0
1.408810126E0,-5.357026458E-1,-3.949834347E0,9.812635422E0
1.410808668E0,-5.069721937E-1,-4.304176331E0,1.031541824E1
1.412807210E0,-5.548562407E-1,-3.940257549E0,9.372102737E0
1.414805751E0,-5.740098357E-1,-4.141370296E0,9.764751434E0
1.416804293E0,-6.123170853E-1,-4.012083530E0,9.707290649E0
1.418802678E0,-6.458359361E-1,-3.700837374E0,9.549273491E0
1.420801064E0,-6.075286865E-1,-3.576338768E0,9.668983459E0
1.422799449E0,-4.926069975E-1,-3.753509760E0,9.348160744E0
1.424797835E0,-3.968389332E-1,-3.662529945E0,9.510966301E0
1.426796220E0,-3.728969097E-1,-3.365648985E0,9.348160744E0
1.428794605E0,-3.154360652E-1,-3.844489336E0,1.027711105E1
1.430792991E0,-3.968389332E-1,-4.261080265E0,1.034414864E1
1.432791376E0,-3.489548862E-1,-3.935469151E0,9.506177902E0
1.434789762E0,-3.585317135E-1,-3.595492363E0,9.257181168E0
1.436788147E0,-3.920505345E-1,-3.854066133E0,9.333795547E0
1.438786533E0,-4.112041295E-1,-4.371213913E0,1.009994030E1
1.440784918E0,-3.824737072E-1,-4.079121113E0,9.721655846E0
1.442783303E0,-3.441664875E-1,-3.437475204E0,9.209297180E0
1.444781689E0,-3.776853085E-1,-3.322553396E0,9.558850288E0
1.446780074E0,-4.016273320E-1,-3.633799553E0,1.027711105E1
1.448778460E0,-3.920505345E-1,-3.470993996E0,9.889249802E0
1.450776845E0,-4.159925580E-1,-3.413532972E0,9.032125473E0
1.452775230E0,-4.590881765E-1,-4.026448727E0,9.635464668E0
1.454773616E0,-2.723404467E-1,-4.385579109E0,1.066497135E1
1.456772001E0,-4.878185987E-1,-4.146158695E0,1.006642151E1
1.458770387E0,-4.926069975E-1,-3.715202570E0,9.534908295E0
1.460768772E0,-4.878185987E-1,-3.557185173E0,9.400833130E0
1.462766897E0,-6.410474777E-1,-3.700837374E0,9.827000618E0
1.464765022E0,-4.638765752E-1,-3.791816950E0,9.946710587E0
1.466763147E0,-5.548562407E-1,-3.609857559E0,9.549273491E0
1.468761272E0,-5.740098357E-1,-3.672106743E0,9.544485092E0
1.470759397E0,-6.027402878E-1,-3.724779367E0,9.510966301E0
1.472757522E0,-6.889315248E-1,-3.945045948E0,1.007120991E1
1.474755699E0,-6.937199235E-1,-3.992929935E0,1.047822380E1
1.476753928E0,-8.182184100E-1,-3.782240152E0,9.740809441E0
1.478752210E0,-8.134300113E-1,-3.609857559E0,9.156624794E0
1.480750543E0,-8.708908558E-1,-3.633799553E0,9.348160744E0
1.482748928E0,-8.708908558E-1,-3.787028551E0,9.827000618E0
1.484747366E0,-7.990648150E-1,-3.657741547E0,1.043033981E1
1.486745855E0,-7.990648150E-1,-3.432686806E0,9.956287384E0
1.488744397E0,-8.948329091E-1,-3.269881010E0,8.965087891E0
1.490742939E0,-9.522937536E-1,-4.241926670E0,1.060272217E1
1.492741480E0,-9.379284978E-1,-4.763862610E0,1.137844372E1
1.494740022E0,-9.522937536E-1,-3.921103716E0,8.768763542E0
1.496738564E0,-1.000177741E0,-3.609857559E0,8.246828079E0
1.498737105E0,-9.714473486E-1,-3.882796526E0,8.859743118E0
1.500735647E0,-7.655459642E-1,-4.385579109E0,1.041597462E1
1.502734189E0,-6.745663285E-1,-4.155735493E0,1.000895977E1
1.504732470E0,-7.368155718E-1,-4.433463097E0,1.010472870E1
1.506730751E0,-6.506243348E-1,-4.385579109E0,1.021965027E1
1.508729033E0,-6.314706802E-1,-4.203619480E0,9.774328232E0
1.510727314E0,-7.416039705E-1,-4.064755917E0,9.429563522E0
1.512725595E0,-7.607575655E-1,-3.983353138E0,8.955511093E0
1.514723876E0,-6.889315248E-1,-4.241926670E0,9.573215485E0
1.516722158E0,-6.362590790E-1,-4.241926670E0,9.544485092E0
1.518720439E0,-5.883750916E-1,-4.390367508E0,9.506177902E0
1.520718720E0,-5.883750916E-1,-4.658517838E0,1.016697788E1
1.522717001E0,-5.213374496E-1,-4.457405090E0,9.649829865E0
1.524715283E0,-4.255693555E-1,-4.376002312E0,9.214085579E0
1.526713564E0,-2.579752207E-1,-4.452616692E0,9.472659111E0
1.528711897E0,-1.191115379E-1,-4.328118324E0,9.668983459E0
1.530710230E0,-9.516951442E-2,-4.083909512E0,9.094375610E0
1.532708564E0,-3.292027488E-2,-4.150947094E0,9.477447510E0
1.534706897E0,6.284779310E-2,-4.328118324E0,9.994594574E0
1.536705230E0,1.490390599E-1,-4.155735493E0,9.908403397E0
1.538703564E0,7.242459804E-2,-3.624222755E0,8.936357498E0
1.540701897E0,4.848258570E-2,-3.614645958E0,9.003395081E0
1.542700230E0,1.155202314E-1,-3.815758944E0,9.870096207E0
1.544698564E0,1.873462796E-1,-3.858854532E0,1.015740108E1
1.546696897E0,1.538274586E-1,-3.609857559E0,9.621099472E0
1.548695230E0,1.634042710E-1,-3.533243179E0,9.692925453E0
1.550693564E0,1.921346933E-1,-3.595492363E0,9.678560257E0
