"Time (s)","Acceleration x (m/s^2)","Acceleration y (m/s^2)","Acceleration z (m/s^2)"
2.256990300E-2,1.298854351E-1,-4.249707982E-2,1.011909389E1
2.456787100E-2,1.250970364E-1,5.985504249E-4,1.020049667E1
2.656578800E-2,1.825578809E-1,9.151836038E-1,1.017176628E1
2.856365300E-2,3.453635871E-1,1.848922253E0,1.002332497E1
3.056146500E-2,3.357867897E-1,1.801038265E0,1.032499504E1
3.255917400E-2,2.926911712E-1,1.638232470E0,1.076552773E1
3.455688200E-2,2.256535143E-1,1.508945584E0,1.094748688E1
3.655459000E-2,9.157821536E-2,1.470638394E0,1.093312168E1
3.855229900E-2,1.496376097E-2,1.427542806E0,1.089481449E1
4.055000700E-2,-1.047463268E-1,1.331774712E0,1.087087250E1
4.254771500E-2,-1.717839688E-1,1.221641421E0,1.092354488E1
4.454542400E-2,-2.867056429E-1,1.145026922E0,1.090439129E1
4.654313200E-2,-3.489548862E-1,1.154603720E0,1.084693050E1
4.854089200E-2,-3.872621357E-1,1.145026922E0,1.078468132E1
5.053870500E-2,-3.728969097E-1,1.240795016E0,1.073679733E1
5.253656900E-2,-3.154360652E-1,1.427542806E0,1.061229897E1
5.453448600E-2,-3.010708690E-1,1.441908002E0,1.062666416E1
5.653240300E-2,-3.010708690E-1,1.475426793E0,1.063145256E1
5.853031900E-2,-2.723404467E-1,1.451484799E0,1.062187576E1
6.052828800E-2,-2.340332121E-1,1.475426793E0,1.052610779E1
6.252630900E-2,-1.861491799E-1,1.523310781E0,1.045428181E1
6.452438200E-2,-1.765723825E-1,1.552041292E0,1.038724422E1
6.652250700E-2,-1.765723825E-1,1.485003591E0,1.031062984E1
6.852063200E-2,-1.669955701E-1,1.432331204E0,1.035851383E1
7.051875700E-2,-1.430535465E-1,1.518522382E0,1.024359226E1
7.251688200E-2,-9.516951442E-2,1.413177609E0,1.041118622E1
7.451500700E-2,-1.574187577E-1,1.226429820E0,1.057399178E1
7.651313200E-2,-1.191115379E-1,1.480215192E0,1.030105305E1
7.851094400E-2,-1.238999367E-1,1.643020868E0,1.004247856E1
8.050875700E-2,-1.861491799E-1,1.561618090E0,1.024838066E1
8.250651700E-2,-2.436100245E-1,1.556829691E0,1.028668785E1
8.450427800E-2,-3.106476665E-1,1.537676096E0,1.017176628E1
8.650203800E-2,-3.298012912E-1,1.542464495E0,1.007599831E1
8.849979900E-2,-2.531868219E-1,1.767519355E0,9.937133789E0
9.049755900E-2,-1.957259923E-1,1.863287449E0,9.898826599E0
9.249531900E-2,-1.765723825E-1,1.580771685E0,1.032499504E1
9.449308000E-2,-2.244564146E-1,1.585560083E0,1.026753426E1
9.649089200E-2,-2.148796022E-1,1.753154159E0,9.855731010E0
9.848875700E-2,-1.095347255E-1,1.877652645E0,9.951498985E0
1.004866740E-1,-5.686229095E-2,1.920748353E0,9.894038200E0
1.024845900E-1,-5.686229095E-2,1.868075848E0,1.015261269E1
1.044825070E-1,-1.855506375E-2,1.997362733E0,9.831789017E0
1.064804240E-1,-6.165069342E-2,2.093130827E0,9.630676270E0
1.084783400E-1,7.721300423E-2,2.193687201E0,9.678560257E0
1.104762570E-1,7.242459804E-2,2.064400434E0,9.678560257E0
1.124741740E-1,1.975216344E-2,1.853710651E0,9.846154213E0
1.144720900E-1,1.442506462E-1,1.992574334E0,9.520543098E0
1.164700070E-1,2.256535143E-1,2.337339401E0,9.285911560E0
1.184679240E-1,2.112883031E-1,2.418742180E0,9.103952408E0
1.204656840E-1,2.352303118E-1,2.107496023E0,9.367314339E0
1.224633400E-1,2.974795699E-1,1.858499050E0,1.009515190E1
1.244609960E-1,3.118447661E-1,1.801038265E0,9.645041466E0
1.264586530E-1,3.309983909E-1,1.839345455E0,9.357737541E0
1.284563090E-1,3.118447661E-1,2.006939650E0,8.773551941E0
1.304539650E-1,2.495955229E-1,1.801038265E0,8.888473511E0
1.324516210E-1,2.974795699E-1,1.518522382E0,9.731232643E0
1.344492780E-1,2.879027426E-1,1.528099179E0,9.544485092E0
1.364469340E-1,2.304419130E-1,1.801038265E0,8.912415504E0
1.384445900E-1,2.495955229E-1,1.815403461E0,9.017760277E0
1.404422460E-1,1.586158574E-1,1.944690347E0,8.610746384E0
1.424399030E-1,2.495955229E-1,2.088342428E0,8.735244751E0
1.444375590E-1,2.974795699E-1,2.078765631E0,9.027337074E0
1.464352670E-1,1.681926697E-1,1.810615063E0,9.525331497E0
1.484330280E-1,1.729810685E-1,1.556829691E0,9.903614998E0
1.504308400E-1,1.059434265E-1,2.145803213E0,9.549273491E0
1.524287050E-1,-8.559270948E-2,2.581547976E0,8.328230858E0
1.544266210E-1,-7.601590455E-2,2.337339401E0,8.941145897E0
1.564245900E-1,1.203086376E-1,1.896806240E0,1.006642151E1
1.584225590E-1,2.495955229E-1,1.710058570E0,1.043512821E1
1.604205280E-1,3.890577704E-2,2.188898802E0,9.846154213E0
1.624184960E-1,-1.861491799E-1,2.744353771E0,8.644265175E0
1.644164650E-1,-5.207388848E-2,2.552817583E0,9.530119896E0
1.664144340E-1,-8.978256024E-3,2.629431963E0,1.019570827E1
1.684124030E-1,1.155202314E-1,2.246359825E0,1.038245583E1
1.704102670E-1,8.200141042E-2,2.035670042E0,1.098579407E1
1.724079760E-1,9.636662155E-2,3.165733099E0,8.965087891E0
1.744055800E-1,2.160767019E-1,3.055599928E0,9.252392769E0
1.764031840E-1,3.070563674E-1,2.203263998E0,1.110550499E1
1.784007880E-1,4.219780564E-1,2.634220362E0,1.044470501E1
1.803983920E-1,1.490390599E-1,3.098695517E0,9.099164009E0
1.823959960E-1,3.740940094E-1,2.729988575E0,1.016697788E1
1.843936010E-1,1.346738487E-1,2.806602955E0,1.003290176E1
1.863912050E-1,2.017114908E-1,2.868852139E0,9.946710587E0
1.883888090E-1,1.394622475E-1,2.457049608E0,1.052131939E1
1.903864650E-1,7.242459804E-2,2.677315950E0,1.011430550E1
1.923841740E-1,-5.207388848E-2,3.151367903E0,9.295488358E0
1.943819340E-1,6.284779310E-2,3.251924515E0,9.376891136E0
1.963797460E-1,2.304419130E-1,2.662950754E0,1.046864700E1
1.983776110E-1,3.740940094E-1,2.222417831E0,1.109113979E1
2.003755280E-1,3.214215636E-1,3.285443306E0,8.831012726E0
2.023734960E-1,2.974795699E-1,2.911947727E0,9.238027573E0
2.043715170E-1,3.262099922E-1,2.418742180E0,1.040639782E1
2.063695900E-1,1.634042710E-1,2.945466757E0,8.313865662E0
2.083677150E-1,3.453635871E-1,1.336563110E0,1.191953278E1
2.103658920E-1,2.064998895E-1,3.012504339E0,9.487024307E0
2.123641210E-1,1.394622475E-1,3.716399670E0,7.878120899E0
2.143624030E-1,3.070563674E-1,3.069965124E0,9.764751434E0
2.163606840E-1,2.879027426E-1,2.275090218E0,1.014303589E1
2.183589650E-1,3.262099922E-1,1.499368787E0,1.061708736E1
2.203572460E-1,3.214215636E-1,2.246359825E0,9.496601105E0
2.223555280E-1,2.735375464E-1,2.749142170E0,9.132682800E0
2.243538090E-1,6.284779310E-2,3.400364876E0,8.304288864E0
2.263520900E-1,2.974795699E-1,1.925536752E0,1.054526138E1
2.283503710E-1,3.549404144E-1,2.428318977E0,1.030584145E1
2.303484960E-1,2.543839216E-1,3.395576477E0,8.471882820E0
2.323465170E-1,3.693056107E-1,2.849698544E0,9.731232643E0
2.343444860E-1,5.656301379E-1,1.461061597E0,1.113902378E1
2.363424550E-1,3.214215636E-1,2.562394381E0,9.630676270E0
2.383404240E-1,1.203086376E-1,4.693233967E0,7.696161270E0
2.403383920E-1,1.107318252E-1,4.013280392E0,9.271546364E0
2.423363610E-1,2.687491477E-1,3.093907118E0,1.037287903E1
2.443343300E-1,3.214215636E-1,2.394800186E0,1.098579407E1
2.463322990E-1,5.805939063E-2,4.152144432E0,8.979453087E0
2.483302670E-1,-2.813187055E-2,5.061941147E0,8.064867973E0
2.503282360E-1,1.394622475E-1,2.322974205E0,1.055004978E1
2.523261530E-1,3.022679687E-1,1.494580388E0,1.167053604E1
2.543240690E-1,6.284779310E-2,2.940678120E0,9.549273491E0
2.563219860E-1,-7.122749835E-2,3.481767893E0,8.945934296E0
2.583197990E-1,-1.376665942E-2,3.333327293E0,9.305065155E0
2.603176110E-1,-4.189853091E-3,3.510498285E0,9.491812706E0
2.623154240E-1,1.496376097E-2,3.160944700E0,1.031062984E1
2.643132360E-1,5.985504249E-4,3.376422882E0,1.054526138E1
2.663110490E-1,-4.189853091E-3,4.099472046E0,9.214085579E0
2.683088610E-1,-8.559270948E-2,5.167285919E0,7.902062893E0
2.703066740E-1,-1.376665942E-2,3.687669277E0,9.649829865E0
2.723044860E-1,1.729810685E-1,3.218405724E0,9.884461403E0
2.743022990E-1,2.064998895E-1,2.533663988E0,1.082777691E1
2.763001110E-1,2.926911712E-1,3.170521498E0,9.827000618E0
2.782979760E-1,1.921346933E-1,3.472191095E0,9.759963036E0
2.802958920E-1,1.017535757E-2,5.349245071E0,7.724891663E0
2.822938090E-1,2.454056777E-2,4.602254391E0,9.161413193E0
2.842917260E-1,1.011550203E-1,4.257489204E0,9.333795547E0
2.862896420E-1,1.969230920E-1,4.042010784E0,9.654618263E0
2.882875590E-1,-1.334767491E-1,4.693233967E0,8.639476776E0
2.902855280E-1,-5.596446395E-1,4.367622375E0,1.001374817E1
2.922835490E-1,-3.106476665E-1,5.301361084E0,8.481459618E0
2.942816210E-1,-4.159925580E-1,6.163273811E0,7.332242489E0
2.962797460E-1,-2.819172442E-1,5.272630692E0,8.605957985E0
2.982779240E-1,-2.531868219E-1,4.343680382E0,9.783905029E0
3.002761530E-1,-2.244564146E-1,4.176086426E0,9.276334763E0
3.022743820E-1,-8.080431074E-2,3.893570423E0,9.127894402E0
3.042726110E-1,-5.207388848E-2,2.763507366E0,9.707290649E0
3.062708400E-1,-1.286883354E-1,3.754706860E0,8.524555206E0
3.082690690E-1,-3.770867735E-2,3.888782024E0,7.380126953E0
3.102672990E-1,-3.292027488E-2,3.462614298E0,8.400056839E0
3.122655280E-1,-4.189853091E-3,3.103483915E0,9.688137054E0
3.142636010E-1,-3.292027488E-2,3.496133089E0,9.649829865E0
3.162616740E-1,-9.995792061E-2,5.090671539E0,7.619546890E0
3.182597460E-1,-1.191115379E-1,5.607819080E0,7.404068947E0
3.202577150E-1,-1.430535465E-1,5.224746704E0,8.012195587E0
3.222556840E-1,5.985504249E-4,5.464166641E0,8.313865662E0
3.242536530E-1,1.777694821E-1,5.732317448E0,8.385691643E0
3.262516210E-1,2.974795699E-1,4.358045578E0,9.362525940E0
3.282495900E-1,6.039373875E-1,4.717175961E0,1.043991661E1
3.302475590E-1,7.667431235E-1,4.999691486E0,1.006163311E1
3.322453710E-1,5.129576921E-1,4.080318451E0,9.989806175E0
3.342431840E-1,4.171896577E-1,3.433883905E0,1.064102936E1
3.362409960E-1,5.991489887E-1,4.104260445E0,1.066497135E1
3.382388090E-1,5.177460909E-1,3.907935619E0,9.582792282E0
3.402366210E-1,4.746504724E-1,3.965396643E0,1.006163311E1
3.422344340E-1,6.422445774E-1,4.923077106E0,9.396044731E0
3.442322460E-1,3.980360329E-1,4.381987572E0,8.912415504E0
3.462300590E-1,3.645172119E-1,3.702034473E0,8.725667953E0
3.482279240E-1,5.225345492E-1,4.061164856E0,9.530119896E0
3.502258400E-1,6.039373875E-1,4.180874825E0,8.835801125E0
3.522238090E-1,3.357867897E-1,2.868852139E0,8.562862396E0
3.542218300E-1,7.954735160E-1,4.065953255E0,9.865307808E0
3.562199030E-1,5.847837925E-1,3.304596901E0,9.123106003E0
3.582180280E-1,3.357867897E-1,2.782660961E0,9.281123161E0
3.602162050E-1,8.050503135E-1,4.037222385E0,9.932345390E0
3.622144340E-1,5.368997455E-1,3.362057686E0,9.170989990E0
3.642126630E-1,3.836708367E-1,3.534440279E0,9.228450775E0
3.662108920E-1,4.650736749E-1,3.725976467E0,9.510966301E0
3.682091210E-1,8.002619147E-1,5.320514679E0,9.731232643E0
3.702073510E-1,1.394622475E-1,4.817732334E0,8.605957985E0
3.722055800E-1,-1.273116708E0,2.782660961E0,7.710526466E0
3.742038090E-1,-2.675520480E-1,3.654150248E0,8.313865662E0
3.762019340E-1,9.822212458E-1,5.473743439E0,1.058835697E1
3.782000070E-1,2.045246840E0,4.391564369E0,9.261969566E0
3.801980280E-1,2.552817583E0,3.644573450E0,1.049258900E1
3.821959960E-1,3.022081137E0,4.439448357E0,1.206797409E1
3.841939650E-1,2.773084164E0,4.405929565E0,1.154124928E1
3.861919340E-1,2.552817583E0,4.975749493E0,1.214458847E1
3.881898510E-1,1.666962981E0,5.665279865E0,1.182376480E1
3.901877670E-1,8.050503135E-1,6.014833450E0,1.100973606E1
3.921856840E-1,-2.436100245E-1,6.053140640E0,1.134971333E1
3.941836010E-1,-2.244564146E-1,6.426635742E0,1.186686039E1
3.961814130E-1,-8.086416125E-1,5.923853397E0,1.134013653E1
3.981792260E-1,-7.416039705E-1,6.737882137E0,1.340393829E1
4.001770380E-1,-4.495113790E-1,7.259818077E0,1.337041950E1
4.021748510E-1,-1.249174714E0,5.229535103E0,1.190516758E1
4.041726630E-1,-9.427168965E-1,5.564723492E0,1.422754383E1
4.061704760E-1,6.284779310E-2,6.575076580E0,1.652118874E1
4.081682880E-1,-3.872621357E-1,6.857592106E0,1.471117210E1
4.101661010E-1,-9.475052953E-1,7.887098789E0,9.831789017E0
4.121639130E-1,-8.469488621E-1,8.054693222E0,9.937133789E0
4.141617260E-1,-1.052850246E0,7.867945194E0,9.175778389E0
4.161595380E-1,-4.016273320E-1,7.073070526E0,1.113423538E1
4.181574030E-1,2.400187254E-1,5.732317448E0,1.207276249E1
4.201553190E-1,1.049258947E0,6.124966621E0,1.258033276E1
4.221532880E-1,1.020528436E0,6.158485413E0,1.089960289E1
4.241513090E-1,1.326986313E0,6.057929039E0,1.102410126E1
4.261493820E-1,1.111508131E0,5.741894245E0,9.889249802E0
4.281475070E-1,1.331774712E0,5.042787552E0,1.120127296E1
4.301456840E-1,1.178545833E0,6.531980991E0,8.974664688E0
4.321439130E-1,7.092822790E-1,5.406705856E0,8.309077263E0
4.341421940E-1,8.194155097E-1,5.943006992E0,8.313865662E0
4.361405280E-1,1.154603720E0,5.679645061E0,1.016697788E1
4.381389130E-1,1.767519355E0,5.631761074E0,1.111508179E1
4.401372990E-1,1.355716705E0,5.818508625E0,8.936357498E0
4.421356840E-1,1.159392118E0,6.139331818E0,8.907627106E0
4.441340690E-1,7.523778677E-1,6.412270546E0,8.304288864E0
4.461324550E-1,1.149815321E0,5.181651115E0,9.865307808E0
4.481305800E-1,1.283890605E0,4.970961094E0,1.132577133E1
4.501286530E-1,1.662174582E0,6.306925774E0,8.936357498E0
4.521267260E-1,9.343371987E-1,6.369174957E0,7.566874504E0
4.541247990E-1,8.912416101E-1,5.722740650E0,9.501389503E0
4.561228710E-1,1.125873327E0,5.928641796E0,1.081820011E1
4.581209440E-1,1.054047346E0,5.301361084E0,1.082777691E1
4.601190170E-1,7.188590765E-1,6.498462200E0,7.389703751E0
4.621170900E-1,4.363432527E-1,6.819284916E0,7.633912086E0
4.641151630E-1,6.661866307E-1,5.775413036E0,9.783905029E0
4.661132360E-1,8.194155097E-1,4.520851135E0,1.218768406E1
4.681113090E-1,5.752069354E-1,6.455366135E0,7.404068947E0
4.701093820E-1,5.847837925E-1,6.431424141E0,7.734468460E0
4.721074550E-1,2.783259451E-1,5.401917458E0,9.357737541E0
4.741055280E-1,9.008184075E-1,5.636549473E0,9.482235909E0
4.761034960E-1,9.534908533E-1,5.435436249E0,9.429563522E0
4.781014130E-1,1.039682031E0,5.703587055E0,8.452729225E0
4.800992260E-1,7.140706778E-1,6.067505836E0,8.055291176E0
4.820970380E-1,1.183334231E0,5.354033470E0,8.749609947E0
4.840948510E-1,9.295488000E-1,5.306149483E0,8.979453087E0
4.860926630E-1,1.025316834E0,6.014833450E0,8.423998833E0
4.880904760E-1,1.346139908E0,5.406705856E0,9.855731010E0
4.900882880E-1,1.226429820E0,5.938218594E0,1.085650730E1
4.920861010E-1,7.284358740E-1,6.335656166E0,1.009994030E1
4.940839130E-1,8.194155097E-1,6.378751755E0,1.121084976E1
4.960817780E-1,4.985924959E-1,6.239888191E0,1.149815369E1
4.980796940E-1,5.512649417E-1,6.134543419E0,1.189080238E1
5.000776630E-1,9.008184075E-1,6.565499783E0,1.102888966E1
5.020756840E-1,7.188590765E-1,6.474519730E0,1.099537086E1
5.040737570E-1,6.853402257E-1,4.702810764E0,1.706706619E1
5.060718300E-1,7.811083198E-1,4.602254391E0,1.218768406E1
5.080699030E-1,4.554968774E-1,5.804143429E0,6.886921406E0
5.100679760E-1,4.459200799E-1,8.409034729E0,3.084928989E0
5.120660490E-1,1.422754407E0,6.057929039E0,8.989029884E0
5.140641210E-1,1.628655672E0,3.122637510E0,1.544379807E1
5.160622460E-1,9.295488000E-1,2.959831953E0,9.525331497E0
5.180603710E-1,1.212064624E0,4.568735600E0,8.821435928E0
5.200584960E-1,1.236006618E0,4.664503574E0,7.001842976E0
5.220566210E-1,9.870096445E-1,2.409165382E0,1.354759026E1
5.240547460E-1,9.774328470E-1,3.544017076E0,1.146942329E1
5.260528710E-1,6.470330358E-1,4.372410774E0,8.084021568E0
5.280510490E-1,8.098387122E-1,4.257489204E0,7.868544102E0
5.300492260E-1,8.002619147E-1,4.602254391E0,8.740033150E0
5.320474030E-1,1.135450125E0,3.649361849E0,1.165138245E1
5.340455800E-1,9.870096445E-1,3.007715940E0,1.022443867E1
5.360437570E-1,6.087257862E-1,3.941454649E0,1.021965027E1
5.380419340E-1,6.374561787E-1,4.453813553E0,5.143942356E0
5.400401110E-1,7.763199210E-1,3.271078110E0,1.229781723E1
5.420382880E-1,6.709750295E-1,1.499368787E0,1.119169617E1
5.440364650E-1,6.470330358E-1,2.610278368E0,8.831012726E0
5.460346420E-1,5.368997455E-1,2.231994629E0,1.031062984E1
5.480328190E-1,1.068412542E0,1.628655672E0,1.099537086E1
5.500309960E-1,6.661866307E-1,2.050035238E0,9.443928719E0
5.520291740E-1,1.250371814E0,2.490568399E0,9.841365814E0
5.540271420E-1,1.063624144E0,2.615066767E0,8.711302757E0
5.560251110E-1,8.816647530E-1,2.112284422E0,1.161307526E1
5.580229760E-1,8.433575630E-1,4.765059948E0,5.321113110E0
5.600207880E-1,4.363432527E-1,6.566098332E-1,7.969100475E0
5.620186010E-1,6.613982320E-1,3.890577704E-2,1.301128960E1
5.640164130E-1,1.203086376E-1,2.423530579E0,1.237443161E1
5.660142260E-1,1.250970364E-1,3.338115692E0,5.033809185E0
5.680120380E-1,4.507084787E-1,-2.340332121E-1,1.328901672E1
5.700098510E-1,4.794389009E-1,2.879027426E-1,9.625887871E0
5.720076630E-1,-6.165069342E-2,2.624643564E0,8.246828079E0
5.740054760E-1,-3.728969097E-1,3.855263233E0,6.048950672E0
5.760032880E-1,-3.585317135E-1,1.538274586E-1,1.339436150E1
5.780011010E-1,-3.872621357E-1,3.645172119E-1,1.264737034E1
5.799989130E-1,-4.686649740E-1,2.490568399E0,7.590816498E0
5.819967260E-1,-5.452794433E-1,2.701258183E0,1.120606136E1
5.839945380E-1,-2.244564146E-1,1.767519355E0,6.211756229E0
5.859924030E-1,1.681926697E-1,7.188590765E-1,8.419210434E0
5.879903190E-1,-7.122749835E-2,1.786673069E0,1.358589745E1
5.899882880E-1,-1.430535465E-1,5.071517944E0,6.293159008E0
5.919863090E-1,4.698620737E-1,2.480991602E0,9.807847023E0
5.939843820E-1,8.481459618E-1,2.768295765E0,1.231697083E1
5.959825070E-1,1.068412542E0,3.232770920E0,1.086608410E1
5.979806320E-1,1.097142935E0,3.826532841E0,1.045907021E1
5.999787570E-1,9.487023950E-1,2.050035238E0,7.767987251E0
6.019768820E-1,1.077989340E0,6.949170232E-1,1.496016979E1
6.039750070E-1,8.242039084E-1,4.271854401E0,3.305195332E0
6.059731320E-1,1.049258947E0,1.245583415E0,1.063145256E1
6.079712570E-1,3.740940094E-1,-5.452794433E-1,9.496601105E0
6.099693820E-1,7.571662664E-1,-9.906009436E-1,1.280059910E1
6.119675070E-1,4.076128304E-1,-2.292448133E-1,1.032978344E1
6.139656320E-1,4.219780564E-1,2.639607489E-1,7.724891663E0
6.159637570E-1,6.278793812E-1,-6.745663285E-1,1.116296577E1
6.179618820E-1,-2.962824702E-1,-8.978256024E-3,7.724891663E0
6.199600070E-1,4.842272997E-1,-6.649895310E-1,1.164659405E1
6.219581320E-1,2.208651006E-1,-9.427168965E-1,1.019091988E1
6.239562570E-1,2.208651006E-1,1.561618090E0,6.096834660E0
6.259543820E-1,5.704185367E-1,-7.799112201E-1,1.449090576E1
6.279525070E-1,1.496376097E-2,7.428010702E-1,6.513425827E0
6.299506320E-1,2.448071241E-1,5.560533404E-1,7.724891663E0
6.319487570E-1,7.380126715E-1,-5.931634903E-1,1.377264500E1
6.339468820E-1,-6.506243348E-1,3.166331649E-1,6.523002625E0
6.359450070E-1,1.825578809E-1,-3.245939016E0,1.405994987E1
6.379430280E-1,-4.542997777E-1,-1.421557307E0,7.945158482E0
6.399408400E-1,-1.574187577E-1,-4.189853091E-3,7.025784969E0
6.419386530E-1,-3.585317135E-1,-2.661753654E0,1.239358521E1
6.439364650E-1,-8.517372608E-1,-2.905962229E0,9.534908295E0
6.459342780E-1,-9.570821524E-1,9.636662155E-2,6.987477779E0
6.479320900E-1,-6.314706802E-1,-1.440710902E0,1.276229191E1
6.499299030E-1,-1.220444322E0,-1.857301950E0,1.099058247E1
6.519277150E-1,-1.464652896E0,-3.776853085E-1,6.082469463E0
6.539255280E-1,-7.703344226E-1,1.197699428E0,1.037287903E1
6.559233400E-1,-1.177348733E0,7.188590765E-1,7.413645744E0
6.579211530E-1,-1.095945835E0,-4.950610638E0,1.726339149E1
6.599189650E-1,-1.153406620E0,-1.689707875E0,9.266757965E0
6.619167780E-1,-1.263539910E0,6.284779310E-2,8.960299492E0
6.639145900E-1,-1.526902080E0,1.571194887E0,5.469553947E0
6.659124030E-1,-1.282693505E0,-1.526902080E0,1.347097588E1
6.679102670E-1,-1.680131078E0,1.681926697E-1,7.126341343E0
6.699081840E-1,-1.014542937E0,-1.478419602E-1,1.292509747E1
6.719061530E-1,-1.464652896E0,1.073200941E0,7.724891663E0
6.739041740E-1,-1.210867524E0,1.757942557E0,8.462306023E0
6.759022460E-1,-1.742380261E0,1.887229443E0,8.285135269E0
6.779003710E-1,-1.440710902E0,6.613982320E-1,9.759963036E0
6.798984960E-1,-8.517372608E-1,-2.264316320E0,1.691383743E1
6.818966210E-1,-1.359308004E0,2.619855165E0,4.866214752E0
6.838947460E-1,-8.996213078E-1,2.480991602E0,5.967547894E0
6.858928710E-1,-8.559270948E-2,-3.954622746E0,1.833599281E1
6.878909960E-1,-1.177348733E0,1.437119603E0,6.336254597E0
6.898891210E-1,-3.106476665E-1,2.097919226E0,6.561309814E0
6.918872460E-1,-3.250128925E-1,-2.077568531E0,1.374391460E1
6.938853710E-1,9.157821536E-2,-2.024896145E0,1.041597462E1
6.958834960E-1,3.022679687E-1,6.757634282E-1,7.250839710E0
6.978816210E-1,7.523778677E-1,-5.207388848E-2,1.024838066E1
6.998797460E-1,1.250970364E-1,-7.990648150E-1,1.065539455E1
7.018778710E-1,1.394622475E-1,-1.095945835E0,6.752845764E0
7.038759440E-1,9.774328470E-1,-3.844489336E0,1.251808357E1
7.058738610E-1,6.661866307E-1,-3.317764997E0,1.334168911E1
7.078716740E-1,-4.973953962E-1,1.963843942E0,1.322796464E0
7.098694860E-1,3.884592354E-1,-3.006518841E0,1.383968258E1
7.118672990E-1,4.267664552E-1,-4.117428303E0,9.951498985E0
7.138651110E-1,2.112883031E-1,-3.351283789E0,1.110071659E1
7.158629240E-1,-3.537433147E-1,-1.747168660E0,7.820659637E0
7.178607360E-1,-5.979518890E-1,-8.565256596E-1,8.313865662E0
7.198585490E-1,-4.249707982E-2,-4.064755917E0,1.302086639E1
7.218563610E-1,-7.601590455E-2,-3.221997023E0,1.304480839E1
7.238541740E-1,-1.038484931E0,-2.388216257E-1,2.548627615E0
7.258519860E-1,-1.062427044E0,-1.895609140E0,9.774328232E0
7.278497990E-1,-5.692214370E-1,-5.429450989E0,1.296340466E1
7.298476630E-1,-6.602011323E-1,-3.442263603E0,1.199614716E1
7.318455800E-1,-1.186925530E0,-4.255693555E-1,4.502296448E0
7.338435490E-1,-4.016273320E-1,-3.198055029E0,1.362899303E1
7.358415690E-1,-6.458359361E-1,-3.193266630E0,1.111508179E1
7.378396420E-1,-1.028908134E0,-6.075286865E-1,5.914875507E0
7.398377670E-1,-5.165489912E-1,-2.024896145E0,1.192432117E1
7.418359440E-1,-7.703344226E-1,-1.814206362E0,9.300276756E0
7.438341740E-1,-4.064157307E-1,-3.226785421E0,1.160828686E1
7.458324550E-1,-6.123170853E-1,-1.828571558E0,9.338583946E0
7.478307880E-1,-7.176619768E-1,-9.235633016E-1,8.208520889E0
7.498291740E-1,-5.117605925E-1,-4.973953962E-1,7.552509308E0
7.518276110E-1,1.975216344E-2,-1.555632591E0,1.170405483E1
7.538260490E-1,-7.601590455E-2,-3.968987942E0,1.864723969E1
7.558244860E-1,-9.666589499E-1,2.160168409E0,-6.584054977E-2
7.578229240E-1,1.873462796E-1,6.518214345E-1,8.974664688E0
7.598211530E-1,6.853402257E-1,-2.867655039E0,1.635838318E1
7.618191740E-1,2.495955229E-1,-5.596446395E-1,6.594828606E0
7.638170380E-1,4.746504724E-1,3.262099922E-1,8.730456352E0
7.658149030E-1,9.630676508E-1,-1.751957059E0,1.219247246E1
7.678127670E-1,6.135141850E-1,3.501519859E-1,6.704961777E0
7.698106320E-1,1.216853023E0,-2.647388458E0,1.363378143E1
7.718084960E-1,1.087566137E0,-3.715202570E0,1.326986313E1
7.738063610E-1,8.864531517E-1,1.183334231E0,2.026691675E0
7.758042260E-1,1.523310781E0,-2.148796022E-1,1.065539455E1
7.778020900E-1,1.700481772E0,-1.234809518E0,1.113902378E1
7.797999550E-1,1.734000564E0,-2.196680009E-1,8.318654060E0
7.817978190E-1,1.987785935E0,-2.470217705E0,1.338957310E1
7.837956840E-1,1.508945584E0,-1.378461599E0,8.050502777E0
7.857935490E-1,1.068412542E0,-3.010708690E-1,6.594828606E0
7.877914130E-1,1.585560083E0,-2.316988707E0,1.304480839E1
7.897893300E-1,1.575983286E0,-1.723226666E0,9.132682800E0
7.917872990E-1,1.370081902E0,-2.776675463E0,1.100015926E1
7.937853190E-1,7.475894690E-1,-1.795052767E0,8.974664688E0
7.957833920E-1,7.619546652E-1,-3.872621357E-1,8.605957985E0
7.977815170E-1,9.151836038E-1,-1.598728180E0,1.068891335E1
7.997796420E-1,8.289923668E-1,-8.325836658E-1,9.199720383E0
8.017777670E-1,9.103952050E-1,-2.321777105E0,9.640253067E0
8.037758920E-1,5.129576921E-1,-2.867655039E0,1.600882912E1
8.057740170E-1,4.794389009E-1,1.734000564E0,2.984372377E0
8.077718820E-1,8.625111580E-1,-2.819771051E0,1.254681396E1
8.097695900E-1,6.183025837E-1,-1.115099430E0,8.213309288E0
8.117672990E-1,5.656301379E-1,-9.091981053E-1,1.070327854E1
8.137649030E-1,7.763199210E-1,3.549404144E-1,6.724115372E0
8.157625070E-1,9.295488000E-1,-2.173336506E0,1.254202557E1
8.177601110E-1,7.475894690E-1,-1.129464626E0,1.107677460E1
8.197577150E-1,5.177460909E-1,-5.261258483E-1,8.261193275E0
8.217553190E-1,1.054047346E0,-2.455852509E0,1.065060616E1
8.237529240E-1,8.768763542E-1,-1.024119735E0,8.639476776E0
8.257505800E-1,1.001374841E0,-1.072003841E0,9.582792282E0
8.277482880E-1,5.847837925E-1,-2.034472942E0,1.328901672E1
8.297460490E-1,5.943605900E-1,1.561618090E0,1.538274646E0
8.317438610E-1,7.763199210E-1,-1.129464626E0,1.325070953E1
8.337417260E-1,5.512649417E-1,-3.408744574E0,1.473990250E1
8.357396420E-1,4.363432527E-1,-1.028908134E0,6.609193802E0
8.377376110E-1,5.799953341E-1,-5.979518890E-1,1.082777691E1
8.397356320E-1,5.512649417E-1,-8.978256024E-3,6.590040207E0
8.417337050E-1,4.411316514E-1,-1.153406620E0,1.360983944E1
8.437318300E-1,4.219780564E-1,-4.830302000E-1,7.566874504E0
8.457300070E-1,4.602852762E-1,-1.225232720E0,8.807070732E0
8.477282360E-1,6.566098332E-1,-3.154959202E0,1.240795040E1
8.497264650E-1,4.219780564E-1,3.884592354E-1,8.227674484E0
8.517246940E-1,3.788824081E-1,-1.076792240E0,1.147900009E1
8.537229240E-1,3.884592354E-1,-1.009754539E0,8.117541313E0
8.557211530E-1,3.932476342E-1,-9.618705511E-1,8.845377922E0
8.577193820E-1,5.752069354E-1,8.678980917E-2,1.073679733E1
8.597176110E-1,2.639607489E-1,4.507084787E-1,6.029797077E0
8.617155280E-1,8.194155097E-1,-3.485359192E0,1.734479332E1
8.637134440E-1,5.799953341E-1,-1.215655923E0,8.021772385E0
8.657113610E-1,3.890577704E-2,1.303044319E0,6.101623058E0
8.677092780E-1,5.033808947E-1,-6.745663285E-1,8.735244751E0
8.697071940E-1,1.681926697E-1,-4.524442673E0,1.216374207E1
8.717051110E-1,4.554968774E-1,-2.422333479E0,8.869319916E0
8.737030280E-1,3.788824081E-1,-3.925892353E0,1.350928307E1
8.757009440E-1,3.693056107E-1,2.352303118E-1,5.584475517E0
8.776988610E-1,4.890156984E-1,-7.032967210E-1,8.854954720E0
8.796967780E-1,4.650736749E-1,-1.344942808E0,9.089587212E0
8.816947460E-1,2.591723204E-1,-3.834912539E0,1.687074280E1
8.836927670E-1,-1.622071713E-1,1.017535757E-2,5.177461147E0
8.856908400E-1,3.788824081E-1,2.495955229E-1,6.211756229E0
8.876889650E-1,3.645172119E-1,-2.230797529E0,1.501763058E1
8.896871420E-1,4.076128304E-1,-6.027402878E-1,9.300276756E0
8.916853710E-1,-9.038111567E-2,1.413177609E0,5.704185486E0
8.936836530E-1,2.495955229E-1,-1.239597917E0,1.376785660E1
8.956819860E-1,2.932897024E-2,-7.416039705E-1,1.023880386E1
8.976803710E-1,-7.601590455E-2,7.140706778E-1,4.076128483E0
8.996787570E-1,1.203086376E-1,-3.044826031E0,1.429936981E1
9.016771420E-1,1.017535757E-2,-2.412756681E0,1.259469795E1
9.036755280E-1,3.890577704E-2,-1.493383288E0,7.423222542E0
9.056739130E-1,-2.196680009E-1,-1.292270422E0,8.701725960E0
9.076719860E-1,-2.196680009E-1,-2.671330452E0,1.020049667E1
9.096700070E-1,5.805939063E-2,-2.264316320E0,7.332242489E0
9.116680280E-1,2.208651006E-1,-2.034472942E0,1.280538750E1
9.136660490E-1,1.017535757E-2,-2.422333479E0,7.906851292E0
9.156640690E-1,-4.207809567E-1,-1.924339652E0,8.797493935E0
9.176620900E-1,-1.909375787E-1,-6.841431260E-1,9.094375610E0
9.196601110E-1,-2.483984232E-1,-3.518877983E0,1.628655624E1
9.216581320E-1,-4.399345517E-1,3.405751884E-1,3.803189516E0
9.236561530E-1,-3.968389332E-1,-1.009754539E0,1.075595093E1
9.256541740E-1,-7.655459642E-1,-2.910750628E0,1.197699356E1
9.276521940E-1,-8.708908558E-1,-7.799112201E-1,5.402516365E0
9.296502150E-1,-5.596446395E-1,-3.236362219E0,1.456752014E1
9.316482360E-1,-1.526902080E0,-4.016273320E-1,6.192602634E0
9.336462570E-1,-8.517372608E-1,-1.842936754E0,1.052610779E1
9.356442780E-1,-6.266822815E-1,-1.862090349E0,1.326986313E1
9.376422990E-1,-9.475052953E-1,-2.914940715E-1,6.896498203E0
9.396403190E-1,-5.787982345E-1,-1.569997787E0,9.156624794E0
9.416383400E-1,-8.373720646E-1,-2.211643934E0,1.408389187E1
9.436363610E-1,-9.091981053E-1,-4.542997777E-1,5.498284340E0
9.456343820E-1,-7.559691668E-1,-2.805405855E0,1.068412495E1
9.476324030E-1,-9.331400990E-1,-3.260304213E0,1.062666416E1
9.496304240E-1,-6.745663285E-1,-4.083909512E0,1.183813000E1
9.516284440E-1,-9.331400990E-1,-2.398391485E0,9.965864182E0
9.536264650E-1,-8.852560520E-1,7.858967185E-1,3.161543369E0
9.556244860E-1,-3.728969097E-1,-2.307411909E0,1.363856983E1
9.576225590E-1,-1.057638645E0,-2.561197281E0,1.179024601E1
9.596206840E-1,-1.148618221E0,1.326986313E0,1.576581836E0
9.616188090E-1,-8.565256596E-1,-4.567538261E0,1.883877563E1
9.636169340E-1,-1.210867524E0,-2.531868219E-1,5.991489887E0
9.656150590E-1,-3.824737072E-1,3.980360329E-1,6.388927460E0
9.676131840E-1,-3.345896900E-1,-3.490147591E0,1.772786713E1
9.696113090E-1,-6.793547273E-1,-6.937199235E-1,6.173449039E0
9.716094860E-1,-3.345896900E-1,-2.637811661E0,1.140238571E1
9.736077150E-1,-4.686649740E-1,-1.244386315E0,7.600393295E0
9.756059960E-1,-3.920505345E-1,-2.853289843E0,1.147421169E1
9.776042780E-1,5.985504249E-4,-2.053027898E-1,8.625111580E0
9.796026110E-1,-2.100912035E-1,4.124012291E-1,9.108740807E0
9.816009960E-1,-2.292448133E-1,-1.129464626E0,1.140717411E1
9.835993820E-1,-3.202244639E-1,-2.005143911E-1,8.787917137E0
9.855977670E-1,-2.196680009E-1,-1.316212416E0,1.313578796E1
9.875961530E-1,-1.430535465E-1,1.154603720E0,5.038597584E0
9.895945380E-1,-8.978256024E-3,-4.255693555E-1,8.409633636E0
9.915929240E-1,5.805939063E-2,-2.633023262E0,1.392108536E1
9.935913090E-1,-5.686229095E-2,-1.158195019E0,7.054515362E0
9.955896940E-1,-2.196680009E-1,-1.340154409E0,9.865307808E0
9.975877670E-1,-2.867056429E-1,-1.407191992E0,7.791929245E0
9.995858400E-1,-8.978256024E-3,-2.953846455E0,1.035372543E1
1.001583913E0,-2.196680009E-1,-2.182913303E0,1.098579407E1
1.003581986E0,-5.357026458E-1,-2.455852509E0,9.089587212E0
1.005580059E0,-3.250128925E-1,-3.547608376E0,1.011909389E1
1.007578132E0,-1.669955701E-1,-3.652953148E0,1.248935318E1
1.009576205E0,-1.286883354E-1,-1.325789213E0,1.120606136E1
1.011574278E0,-9.995792061E-2,3.836708367E-1,5.972336292E0
1.013572351E0,2.304419130E-1,-3.025672436E0,1.393066216E1
1.015570424E0,2.926911712E-1,-1.728015065E0,1.066018295E1
1.017568549E0,1.155202314E-1,-8.325836658E-1,9.242815971E0
1.019566674E0,4.124012291E-1,1.973420739E0,4.904522419E0
1.021564799E0,5.943605900E-1,-2.723404467E-1,8.318654060E0
1.023562924E0,2.352303118E-1,-3.289034605E0,1.596573448E1
1.025561049E0,5.368997455E-1,-1.287482023E0,7.260416508E0
1.027559226E0,2.454056777E-2,-3.490147591E0,9.951498985E0
1.029557403E0,8.200141042E-2,-3.356072187E0,9.309853554E0
1.031555580E0,7.721300423E-2,-5.132569790E0,1.278623390E1
1.033553757E0,-4.973953962E-1,-3.858854532E0,7.887697697E0
1.035551934E0,1.017535757E-2,-4.912303448E0,1.198657036E1
1.037550111E0,-1.813607812E-1,-4.850054264E0,1.187643719E1
1.039548288E0,3.405751884E-1,-4.514865875E0,5.756857872E0
1.041546465E0,1.777694821E-1,-6.181230068E0,1.007120991E1
1.043544642E0,-1.526303589E-1,-4.385579109E0,7.782352448E0
1.045542819E0,-9.995792061E-2,-5.501276970E0,1.052131939E1
1.047540996E0,-1.909375787E-1,-3.935469151E0,5.287594318E0
1.049539174E0,-3.968389332E-1,-4.165312290E0,8.146271706E0
1.051537351E0,-3.681085110E-1,-7.713519096E0,1.208233929E1
1.053535528E0,-6.985083222E-1,-9.528324127E0,1.389714336E1
1.055533705E0,-4.878185987E-1,-6.569090843E0,5.953182697E0
1.057531882E0,-8.708908558E-1,-8.661623001E0,1.185249519E1
1.059530059E0,-1.215655923E0,-9.648034096E0,1.094269848E1
1.061528236E0,-8.182184100E-1,-7.876325130E0,9.779116631E0
1.063526413E0,-7.703344226E-1,-5.525218964E0,9.616311073E0
1.065524590E0,-8.325836658E-1,-3.384802580E0,5.402516365E0
1.067522767E0,-7.128735781E-1,-7.627327919E0,1.390672016E1
1.069520944E0,-7.799112201E-1,-5.079897404E0,1.146942329E1
1.071519121E0,-8.277952671E-1,-4.141370296E0,6.949170589E0
1.073517299E0,-6.362590790E-1,-4.433463097E0,1.060272217E1
1.075515476E0,-3.489548862E-1,-6.990470409E0,1.334168911E1
1.077513653E0,-6.697779298E-1,-5.625775337E0,5.737704277E0
1.079511830E0,-6.889315248E-1,-6.727108002E0,9.702502251E0
1.081510059E0,-1.115099430E0,-7.483675957E0,1.210628128E1
1.083508340E0,-7.176619768E-1,-8.388684273E0,8.524555206E0
1.085506674E0,-2.340332121E-1,-9.762955666E0,1.167053604E1
1.087505059E0,-3.872621357E-1,-7.770980358E0,8.194155693E0
1.089503496E0,-6.362590790E-1,-8.336011887E0,1.096664047E1
1.091501986E0,-7.128735781E-1,-9.446921349E0,9.405621529E0
1.093500528E0,-9.283517003E-1,-9.288904190E0,7.571662903E0
1.095499069E0,-9.618705511E-1,-1.059613800E1,9.970652580E0
1.097497611E0,-7.128735781E-1,-9.116521835E0,1.026753426E1
1.099496101E0,-7.655459642E-1,-9.039907455E0,9.099164009E0
1.101494017E0,-6.649895310E-1,-1.017475891E1,8.328230858E0
1.103491934E0,-6.554127336E-1,-8.719083786E0,1.040160942E1
1.105489851E0,-8.373720646E-1,-9.513958931E0,1.332253551E1
1.107487767E0,-5.165489912E-1,-6.913856030E0,6.757634163E0
1.109485684E0,-7.272387743E-1,-6.588244438E0,1.012388229E1
1.111483653E0,-2.005143911E-1,-7.196371555E0,1.192910957E1
1.113481674E0,-3.537433147E-1,-7.105391979E0,8.543708801E0
1.115479746E0,-4.303577542E-1,-7.158064365E0,8.208520889E0
1.117477871E0,-3.920505345E-1,-6.186018467E0,8.998606682E0
1.119476049E0,-6.458359361E-1,-8.115745544E0,1.094269848E1
1.121474278E0,-5.883750916E-1,-9.729436874E0,1.363856983E1
1.123472559E0,-4.734533727E-1,-8.096591949E0,9.017760277E0
1.125470892E0,-3.633201122E-1,-6.473322868E0,6.839036942E0
1.127469278E0,-3.106476665E-1,-7.220313549E0,1.043033981E1
1.129467715E0,5.985504249E-4,-7.909843922E0,1.075595093E1
1.131466153E0,3.890577704E-2,-7.277774811E0,9.611522675E0
1.133464590E0,8.678980917E-2,-7.086238384E0,9.252392769E0
1.135463028E0,1.442506462E-1,-7.277774811E0,9.491812706E0
1.137461465E0,-1.143231317E-1,-6.559514046E0,9.180566788E0
1.139459903E0,-6.171054840E-1,-7.852383137E0,1.148857689E1
1.141458340E0,-4.926069975E-1,-8.245032310E0,1.036809063E1
1.143456674E0,-2.531868219E-1,-7.555501938E0,9.434351921E0
1.145455007E0,-4.542997777E-1,-7.114968777E0,8.653841972E0
1.147453340E0,-4.112041295E-1,-7.277774811E0,9.108740807E0
1.149451674E0,-3.489548862E-1,-8.177994728E0,9.750386238E0
1.151450007E0,-4.447229803E-1,-8.604162216E0,9.185355186E0
1.153448340E0,-1.478419602E-1,-8.201936722E0,1.052131939E1
1.155446674E0,-2.196680009E-1,-7.416638374E0,1.025316906E1
1.157445007E0,-4.249707982E-2,-6.779780865E0,8.222886086E0
1.159443340E0,3.070563674E-1,-7.177217960E0,1.016218948E1
1.161441674E0,-9.995792061E-2,-7.110180378E0,1.083735371E1
1.163439851E0,-1.382651478E-1,-6.693589211E0,9.477447510E0
1.165437924E0,-6.075286865E-1,-6.913856030E0,9.549273491E0
1.167435996E0,-4.189853091E-3,-6.755838871E0,1.061708736E1
1.169434069E0,9.157821536E-2,-7.028777599E0,1.155561447E1
1.171432142E0,8.678980917E-2,-5.553949356E0,9.180566788E0
1.173430215E0,1.346738487E-1,-4.888361454E0,8.313865662E0
1.175428288E0,8.678980917E-2,-5.970540524E0,1.067454815E1
1.177426361E0,1.203086376E-1,-6.593032837E0,1.072243214E1
1.179424434E0,5.033808947E-1,-5.611410141E0,9.261969566E0
1.181422507E0,4.028244317E-1,-4.658517838E0,8.543708801E0
1.183420632E0,1.107318252E-1,-4.969764233E0,8.989029884E0
1.185418757E0,-8.559270948E-2,-6.008847713E0,1.065539455E1
1.187416882E0,-3.058592677E-1,-5.242702961E0,9.530119896E0
1.189415007E0,-3.292027488E-2,-5.156511784E0,9.496601105E0
1.191413132E0,4.848258570E-2,-5.620986938E0,1.067933655E1
1.193411257E0,7.721300423E-2,-5.257068157E0,9.525331497E0
1.195409434E0,-6.165069342E-2,-4.912303448E0,9.515754700E0
1.197407611E0,1.250970364E-1,-4.998494625E0,9.592369080E0
1.199405788E0,-2.334346622E-2,-5.812523365E0,1.015261269E1
1.201403965E0,1.298854351E-1,-5.127781391E0,8.888473511E0
1.203402142E0,1.496376097E-2,-4.811747074E0,9.309853554E0
1.205400319E0,5.805939063E-2,-4.988917828E0,9.314641953E0
1.207398496E0,-1.143231317E-1,-5.841253757E0,1.053568459E1
1.209396674E0,-3.728969097E-1,-5.395932198E0,1.050216579E1
1.211394851E0,-3.292027488E-2,-4.586691856E0,9.506177902E0
1.213393028E0,2.932897024E-2,-4.294599533E0,9.769539833E0
1.215391205E0,2.160767019E-1,-3.858854532E0,9.980229378E0
1.217389382E0,9.636662155E-2,-3.327341795E0,9.894038200E0
1.219387559E0,-8.978256024E-3,-3.724779367E0,9.645041466E0
1.221385736E0,1.921346933E-1,-3.830124140E0,9.697713852E0
1.223383913E0,-2.100912035E-1,-3.073556423E0,9.036913872E0
1.225382090E0,-2.813187055E-2,-3.293823004E0,1.012867069E1
1.227380267E0,4.171896577E-1,-3.250727415E0,1.066497135E1
1.229378444E0,5.991489887E-1,-3.154959202E0,9.630676270E0
1.231376621E0,2.591723204E-1,-3.231573820E0,9.520543098E0
1.233374799E0,-2.531868219E-1,-3.475782394E0,9.630676270E0
1.235372976E0,-8.559270948E-2,-3.619434357E0,9.817423820E0
1.237371153E0,3.411737457E-2,-3.427898169E0,9.664195061E0
1.239369330E0,3.214215636E-1,-3.183689594E0,9.180566788E0
1.241367507E0,3.597288132E-1,-2.929904222E0,9.573215485E0
1.243365684E0,2.160767019E-1,-3.284246206E0,1.071764374E1
1.245363861E0,1.825578809E-1,-3.092710018E0,9.831789017E0
1.247362038E0,1.586158574E-1,-2.838924646E0,9.558850288E0
1.249360111E0,5.225345492E-1,-2.656965256E0,9.659406662E0
1.251358132E0,6.326677799E-1,-2.532466888E0,9.836577415E0
1.253356101E0,6.087257862E-1,-2.379237890E0,9.611522675E0
1.255354017E0,5.464765429E-1,-2.403179884E0,9.898826599E0
1.257351934E0,3.645172119E-1,-2.451063871E0,9.678560257E0
1.259349851E0,1.825578809E-1,-2.326565504E0,9.376891136E0
1.261347715E0,2.974795699E-1,-2.508524895E0,1.010951710E1
1.263345580E0,2.256535143E-1,-2.216432333E0,9.989806175E0
1.265343444E0,1.250970364E-1,-1.651400566E0,9.319430351E0
1.267341309E0,3.740940094E-1,-1.656189084E0,9.688137054E0
1.269339174E0,5.847837925E-1,-1.675342679E0,9.951498985E0
1.271337038E0,3.788824081E-1,-1.656189084E0,9.295488358E0
1.273334903E0,2.112883031E-1,-1.814206362E0,8.926780701E0
1.275332767E0,1.873462796E-1,-2.206855536E0,9.673771858E0
1.277330632E0,1.586158574E-1,-2.326565504E0,1.017176628E1
1.279328549E0,1.873462796E-1,-1.833359957E0,9.764751434E0
1.281326517E0,2.256535143E-1,-1.378461599E0,9.290699959E0
1.283324538E0,3.022679687E-1,-1.201290727E0,9.419986725E0
1.285322611E0,3.597288132E-1,-1.253963113E0,9.640253067E0
1.287320736E0,2.591723204E-1,-1.364096403E0,9.688137054E0
1.289318965E0,2.208651006E-1,-1.378461599E0,9.716867447E0
1.291317299E0,1.681926697E-1,-1.368884802E0,9.731232643E0
1.293315684E0,2.017114908E-1,-1.249174714E0,9.688137054E0
1.295314121E0,1.442506462E-1,-9.187749028E-1,9.424775124E0
1.297312611E0,1.490390599E-1,-6.506243348E-1,9.458293915E0
1.299311101E0,1.538274586E-1,-6.362590790E-1,9.788693428E0
1.301309590E0,1.777694821E-1,-5.548562407E-1,9.846154213E0
1.303308080E0,1.490390599E-1,-4.303577542E-1,9.764751434E0
1.305306569E0,7.242459804E-2,-2.723404467E-1,9.736021042E0
1.307304903E0,1.107318252E-1,-1.765723825E-1,9.621099472E0
1.309303080E0,1.873462796E-1,-1.334767491E-1,9.654618263E0
1.311301205E0,1.777694821E-1,-7.122749835E-2,9.654618263E0
1.313299278E0,2.831143439E-1,-1.526303589E-1,9.764751434E0
1.315297246E0,2.112883031E-1,-8.080431074E-2,9.740809441E0
1.317295111E0,2.400187254E-1,-3.292027488E-2,9.750386238E0
1.319292976E0,2.208651006E-1,-3.292027488E-2,9.649829865E0
1.321290840E0,1.586158574E-1,5.327098817E-2,9.668983459E0
1.323288705E0,1.394622475E-1,1.394622475E-1,9.702502251E0
1.325286569E0,1.825578809E-1,3.022679687E-1,9.654618263E0
1.327284434E0,1.346738487E-1,3.166331649E-1,9.783905029E0
1.329282299E0,1.729810685E-1,3.357867897E-1,9.831789017E0
1.331280163E0,1.634042710E-1,5.081692934E-1,9.645041466E0
1.333278028E0,1.921346933E-1,5.464765429E-1,9.702502251E0
1.335275892E0,2.687491477E-1,4.602852762E-1,9.879673004E0
1.337273757E0,2.208651006E-1,4.315548539E-1,9.755174637E0
1.339271621E0,2.256535143E-1,4.028244317E-1,9.558850288E0
1.341269486E0,2.735375464E-1,3.262099922E-1,9.578003883E0
1.343267351E0,3.262099922E-1,2.160767019E-1,9.697713852E0
1.345265215E0,3.262099922E-1,1.203086376E-1,9.678560257E0
1.347263080E0,2.304419130E-1,5.327098817E-2,9.597157478E0
1.349260944E0,2.064998895E-1,1.496376097E-2,9.649829865E0
1.351258861E0,2.256535143E-1,9.157821536E-2,9.621099472E0
1.353256778E0,2.448071241E-1,3.411737457E-2,9.606734276E0
1.355254694E0,1.777694821E-1,1.634042710E-1,9.630676270E0
1.357252663E0,1.825578809E-1,1.442506462E-1,9.860519409E0
1.359250632E0,9.157821536E-2,2.400187254E-1,9.879673004E0
1.361248601E0,1.496376097E-2,2.352303118E-1,9.807847023E0
1.363246569E0,-1.855506375E-2,1.681926697E-1,9.783905029E0
1.365244538E0,-4.728548229E-2,8.200141042E-2,9.917980194E0
1.367242507E0,-1.286883354E-1,1.250970364E-1,9.903614998E0
1.369240476E0,-6.165069342E-2,2.064998895E-1,9.831789017E0
1.371238444E0,-7.601590455E-2,2.352303118E-1,9.731232643E0
1.373236413E0,-1.191115379E-1,2.879027426E-1,9.736021042E0
1.375234382E0,-4.728548229E-2,2.256535143E-1,9.659406662E0
1.377232351E0,5.805939063E-2,1.442506462E-1,9.640253067E0
1.379230319E0,1.059434265E-1,4.848258570E-2,9.673771858E0
1.381228288E0,2.495955229E-1,-8.559270948E-2,9.759963036E0
1.383226257E0,3.214215636E-1,-1.286883354E-1,9.688137054E0
1.385224226E0,3.262099922E-1,-1.430535465E-1,9.640253067E0
1.387222194E0,3.693056107E-1,-1.143231317E-1,9.592369080E0
1.389220163E0,4.985924959E-1,-2.292448133E-1,9.721655846E0
1.391218132E0,5.273229480E-1,-2.723404467E-1,9.807847023E0
1.393216101E0,5.225345492E-1,-2.771288455E-1,9.855731010E0
1.395214121E0,4.650736749E-1,-2.244564146E-1,9.850942612E0
1.397212194E0,4.602852762E-1,-1.574187577E-1,9.865307808E0
1.399210319E0,4.028244317E-1,-3.770867735E-2,9.913191795E0
1.401208444E0,4.602852762E-1,-4.249707982E-2,9.980229378E0
1.403206621E0,5.321113467E-1,-2.813187055E-2,9.937133789E0
1.405204799E0,5.129576921E-1,1.975216344E-2,9.927556992E0
1.407202976E0,5.081692934E-1,4.848258570E-2,9.980229378E0
1.409201153E0,5.273229480E-1,-1.376665942E-2,1.000895977E1
1.411199330E0,5.464765429E-1,-5.207388848E-2,1.001374817E1
1.413197507E0,4.985924959E-1,1.975216344E-2,1.001853657E1
1.415195684E0,4.842272997E-1,-1.376665942E-2,1.008078671E1
1.417193757E0,3.740940094E-1,3.411737457E-2,1.008557510E1
1.419191674E0,2.495955229E-1,1.011550203E-1,1.010472870E1
1.421189590E0,2.112883031E-1,2.064998895E-1,1.010951710E1
1.423187507E0,1.729810685E-1,2.783259451E-1,1.012867069E1
1.425185424E0,1.634042710E-1,3.884592354E-1,1.012388229E1
1.427183340E0,1.777694821E-1,4.219780564E-1,1.015261269E1
1.429181257E0,1.586158574E-1,4.890156984E-1,1.014303589E1
1.431179174E0,7.721300423E-2,5.177460909E-1,1.016697788E1
1.433177090E0,4.369417951E-2,4.890156984E-1,1.021007347E1
1.435175007E0,6.284779310E-2,4.554968774E-1,1.018134308E1
1.437172924E0,1.442506462E-1,4.076128304E-1,1.007599831E1
1.439170840E0,2.591723204E-1,2.783259451E-1,9.970652580E0
1.441168757E0,1.681926697E-1,1.442506462E-1,1.009515190E1
1.443166674E0,1.059434265E-1,1.490390599E-1,1.020049667E1
1.445164590E0,1.538274586E-1,1.825578809E-1,1.015740108E1
1.447162507E0,1.203086376E-1,2.926911712E-1,1.001374817E1
1.449160424E0,1.921346933E-1,2.448071241E-1,9.865307808E0
1.451158340E0,2.400187254E-1,2.208651006E-1,9.846154213E0
1.453156257E0,2.639607489E-1,1.873462796E-1,9.884461403E0
1.455154174E0,3.262099922E-1,1.394622475E-1,9.855731010E0
1.457152090E0,3.597288132E-1,6.763619930E-2,9.836577415E0
1.459150007E0,3.645172119E-1,1.496376097E-2,9.793481827E0
1.461147924E0,3.597288132E-1,-4.728548229E-2,9.870096207E0
1.463145840E0,4.076128304E-1,-1.191115379E-1,9.913191795E0
1.465143757E0,3.405751884E-1,-9.995792061E-2,9.870096207E0
1.467141674E0,2.687491477E-1,-7.122749835E-2,9.850942612E0
1.469139590E0,2.687491477E-1,-5.207388848E-2,9.855731010E0
1.471137507E0,2.687491477E-1,-8.080431074E-2,9.903614998E0
1.473135424E0,3.022679687E-1,-1.765723825E-1,9.898826599E0
1.475133340E0,2.831143439E-1,-1.765723825E-1,9.850942612E0
1.477131257E0,2.879027426E-1,-1.430535465E-1,9.812635422E0
1.479129174E0,2.735375464E-1,-2.100912035E-1,9.841365814E0
1.481127090E0,2.974795699E-1,-2.005143911E-1,9.788693428E0
1.483125007E0,2.735375464E-1,-2.531868219E-1,9.841365814E0
1.485122924E0,2.926911712E-1,-2.675520480E-1,9.807847023E0
1.487120840E0,2.495955229E-1,-3.441664875E-1,9.759963036E0
1.489118757E0,1.729810685E-1,-3.872621357E-1,9.846154213E0
1.491116674E0,1.394622475E-1,-4.351461530E-1,9.903614998E0
1.493114590E0,1.155202314E-1,-4.878185987E-1,9.932345390E0
1.495112507E0,5.327098817E-2,-5.261258483E-1,9.980229378E0
1.497110476E0,4.369417951E-2,-4.351461530E-1,9.946710587E0
1.499108444E0,-8.978256024E-3,-3.202244639E-1,9.898826599E0
1.501106465E0,-3.770867735E-2,-2.148796022E-1,9.932345390E0
1.503104486E0,-3.292027488E-2,-1.430535465E-1,9.932345390E0
1.505102559E0,-7.122749835E-2,-1.286883354E-1,1.009515190E1
1.507100684E0,-1.095347255E-1,-1.574187577E-1,1.020049667E1
1.509098861E0,-1.143231317E-1,-1.430535465E-1,1.026274586E1
1.511097090E0,-1.765723825E-1,-1.191115379E-1,1.025795746E1
1.513095319E0,-2.148796022E-1,-1.238999367E-1,1.018613148E1
1.515093549E0,-3.010708690E-1,-9.995792061E-2,1.009515190E1
1.517091778E0,-2.819172442E-1,-1.574187577E-1,9.980229378E0
1.519090007E0,-2.483984232E-1,-2.388216257E-1,9.927556992E0
1.521088236E0,-1.861491799E-1,-3.345896900E-1,9.865307808E0
1.523086465E0,-1.478419602E-1,-4.112041295E-1,9.894038200E0
1.525084694E0,-9.038111567E-2,-5.069721937E-1,9.989806175E0
1.527082924E0,-6.165069342E-2,-6.027402878E-1,1.000895977E1
1.529081153E0,-1.717839688E-1,-6.506243348E-1,9.999382973E0
1.531079226E0,-2.436100245E-1,-7.080851793E-1,9.898826599E0
1.533077299E0,-3.345896900E-1,-7.799112201E-1,9.740809441E0
1.535075371E0,-3.824737072E-1,-8.613140583E-1,9.664195061E0
1.537073444E0,-3.872621357E-1,-9.283517003E-1,9.736021042E0
1.539071517E0,-4.255693555E-1,-9.618705511E-1,9.831789017E0
1.541069590E0,-4.303577542E-1,-1.009754539E0,9.941922188E0
1.543067663E0,-5.165489912E-1,-1.076792240E0,1.004726696E1
1.545065736E0,-5.787982345E-1,-1.148618221E0,1.018134308E1
1.547063809E0,-5.883750916E-1,-1.220444322E0,1.030584145E1
