"Time (s)","Acceleration x (m/s^2)","Acceleration y (m/s^2)","Acceleration z (m/s^2)"
2.078916800E-2,-1.047463268E-1,7.044938207E-1,1.001374817E1
2.208703300E-2,-9.995792061E-2,7.571662664E-1,1.004726696E1
2.405224100E-2,-1.191115379E-1,7.140706778E-1,1.008557510E1
2.601745000E-2,-9.995792061E-2,6.805518270E-1,1.012388229E1
2.798265800E-2,-9.516951442E-2,6.853402257E-1,1.011430550E1
2.988213700E-2,-9.038111567E-2,6.039373875E-1,1.015261269E1
3.170932500E-2,-4.249707982E-2,5.799953341E-1,1.014303589E1
3.367453300E-2,-1.855506375E-2,5.656301379E-1,1.014782429E1
3.563974100E-2,1.496376097E-2,5.416881442E-1,1.009036350E1
3.760495000E-2,1.155202314E-1,5.129576921E-1,1.006163311E1
3.957015800E-2,1.155202314E-1,5.129576921E-1,9.994594574E0
4.153536600E-2,8.200141042E-2,4.602852762E-1,9.937133789E0
4.350057500E-2,3.890577704E-2,4.315548539E-1,9.927556992E0
4.546578300E-2,3.890577704E-2,4.363432527E-1,9.898826599E0
4.743099100E-2,1.017535757E-2,4.315548539E-1,9.870096207E0
4.939620000E-2,1.496376097E-2,4.411316514E-1,9.874884605E0
5.136140800E-2,-4.189853091E-3,4.938040972E-1,9.870096207E0
5.332661600E-2,5.386953708E-3,5.033808947E-1,9.850942612E0
5.529182500E-2,-8.978256024E-3,5.273229480E-1,9.870096207E0
5.725703300E-2,-2.334346622E-2,6.230909824E-1,9.841365814E0
5.922224100E-2,-2.813187055E-2,7.092822790E-1,9.812635422E0
6.118745000E-2,-4.189853091E-3,7.428010702E-1,9.841365814E0
6.315265800E-2,5.386953708E-3,7.571662664E-1,9.865307808E0
6.511786600E-2,5.386953708E-3,8.194155097E-1,9.841365814E0
6.708307500E-2,5.985504249E-4,7.858967185E-1,9.874884605E0
6.904828300E-2,-1.855506375E-2,7.571662664E-1,9.855731010E0
7.101349100E-2,-1.376665942E-2,7.715315223E-1,9.812635422E0
7.297870000E-2,1.975216344E-2,7.858967185E-1,9.769539833E0
7.494390800E-2,1.975216344E-2,8.002619147E-1,9.759963036E0
7.690911600E-2,3.890577704E-2,8.289923668E-1,9.745597839E0
7.887432500E-2,-5.596446395E-1,2.030881643E0,9.855731010E0
8.083953300E-2,-5.835866928E-1,2.744353771E0,9.515754700E0
8.280474100E-2,-4.447229803E-1,2.768295765E0,9.597157478E0
8.476995000E-2,-3.872621357E-1,2.653373957E0,9.793481827E0
8.673599100E-2,-2.819172442E-1,2.533663988E0,9.764751434E0
8.870411600E-2,-2.053027898E-1,2.308609009E0,9.510966301E0
9.067552300E-2,-1.957259923E-1,2.050035238E0,9.788693428E0
9.265114800E-2,-1.957259923E-1,2.150591612E0,9.946710587E0
9.463177300E-2,-8.978256024E-3,2.102707624E0,9.424775124E0
9.661797100E-2,-1.191115379E-1,2.093130827E0,9.185355186E0
9.861000200E-2,-2.579752207E-1,2.050035238E0,8.854954720E0
1.006079180E-1,-4.542997777E-1,1.978209138E0,9.716867447E0
1.026115120E-1,-5.069721937E-1,1.858499050E0,9.568427086E0
1.046203660E-1,-4.878185987E-1,1.719635367E0,9.482235909E0
1.066339080E-1,-4.973953962E-1,1.686116576E0,9.568427086E0
1.086513560E-1,-5.261258483E-1,1.614290476E0,9.458293915E0
1.106718250E-1,-4.303577542E-1,1.475426793E0,9.482235909E0
1.126943250E-1,-3.537433147E-1,1.604713678E0,9.242815971E0
1.147178660E-1,-2.579752207E-1,1.662174582E0,9.448717117E0
1.167414080E-1,-2.340332121E-1,1.700481772E0,9.558850288E0
1.187406270E-1,-2.053027898E-1,1.748365760E0,9.640253067E0
1.207395330E-1,-1.143231317E-1,1.968632340E0,9.491812706E0
1.227384390E-1,-9.038111567E-2,2.064400434E0,9.443928719E0
1.247373460E-1,-1.430535465E-1,2.150591612E0,9.405621529E0
1.267362520E-1,-2.196680009E-1,2.236783028E0,9.343372345E0
1.287351580E-1,-2.005143911E-1,2.332551003E0,9.338583946E0
1.307340640E-1,-1.861491799E-1,2.423530579E0,9.305065155E0
1.327329710E-1,-2.005143911E-1,2.480991602E0,9.319430351E0
1.347318770E-1,-1.622071713E-1,2.514510393E0,9.592369080E0
1.367307830E-1,-1.909375787E-1,2.514510393E0,9.664195061E0
1.387296890E-1,-2.388216257E-1,2.571971178E0,9.678560257E0
1.407285960E-1,-1.430535465E-1,2.624643564E0,9.688137054E0
1.427275020E-1,-8.080431074E-2,2.634220362E0,9.922768593E0
1.447264080E-1,-8.559270948E-2,2.739565372E0,9.721655846E0
1.467253140E-1,-7.122749835E-2,2.758718967E0,9.702502251E0
1.487242210E-1,-4.189853091E-3,2.706046581E0,9.807847023E0
1.507231790E-1,1.155202314E-1,2.682104349E0,9.908403397E0
1.527221890E-1,2.017114908E-1,2.825756550E0,9.487024307E0
1.547212520E-1,2.735375464E-1,2.864063740E0,9.539696693E0
1.567203660E-1,3.932476342E-1,2.696469545E0,9.999382973E0
1.587194810E-1,4.171896577E-1,2.710834980E0,9.558850288E0
1.607185960E-1,3.549404144E-1,2.662950754E0,9.645041466E0
1.627177100E-1,3.932476342E-1,2.447472572E0,9.601945877E0
1.647168250E-1,4.554968774E-1,2.318185806E0,9.419986725E0
1.667159390E-1,4.363432527E-1,2.236783028E0,9.300276756E0
1.687150540E-1,5.081692934E-1,2.155380011E0,9.419986725E0
1.707141680E-1,5.177460909E-1,2.112284422E0,9.348160744E0
1.727130230E-1,5.225345492E-1,2.030881643E0,9.501389503E0
1.747118770E-1,4.842272997E-1,1.973420739E0,9.261969566E0
1.767107310E-1,3.980360329E-1,2.011728048E0,9.247604370E0
1.787095850E-1,3.597288132E-1,2.030881643E0,9.118317604E0
1.807084390E-1,3.166331649E-1,1.892017841E0,9.611522675E0
1.827072930E-1,1.825578809E-1,1.901594758E0,9.812635422E0
1.847061480E-1,1.586158574E-1,2.050035238E0,9.487024307E0
1.867050020E-1,1.011550203E-1,2.169745207E0,9.467870712E0
1.887039080E-1,2.932897024E-2,2.418742180E0,9.463082314E0
1.907028660E-1,2.932897024E-2,2.696469545E0,9.233239174E0
1.927018770E-1,5.327098817E-2,2.797026157E0,8.907627106E0
1.947009390E-1,2.448071241E-1,2.595913172E0,9.520543098E0
1.967000540E-1,3.453635871E-1,2.519298792E0,9.664195061E0
1.986992210E-1,3.788824081E-1,2.653373957E0,9.161413193E0
2.006984390E-1,4.698620737E-1,2.993350744E0,8.084021568E0
2.026977100E-1,5.656301379E-1,2.935889721E0,8.692149162E0
2.046969810E-1,6.518214345E-1,2.734776974E0,9.051279068E0
2.066962520E-1,6.135141850E-1,2.753930569E0,8.601169586E0
2.086955230E-1,4.890156984E-1,2.495356798E0,9.113529205E0
2.106947930E-1,4.219780564E-1,2.447472572E0,8.677783966E0
2.126938560E-1,5.321113467E-1,2.610278368E0,7.662642479E0
2.146927620E-1,5.560533404E-1,1.987785935E0,8.438364029E0
2.166916680E-1,4.124012291E-1,2.021304846E0,7.542932510E0
2.186905750E-1,3.501519859E-1,2.045246840E0,6.939593792E0
2.206894810E-1,4.124012291E-1,1.872864246E0,7.562086105E0
2.226883870E-1,6.087257862E-1,4.267664552E-1,1.747887039E1
2.246871890E-1,8.912416101E-1,-1.526303589E-1,2.724242401E1
2.266858870E-1,-1.038484931E0,3.290231705E0,1.302565479E1
2.286845850E-1,-2.091933727E0,4.784213543E0,8.213309288E0
2.306832830E-1,-2.345719099E0,4.233547211E0,1.244625759E1
2.326819810E-1,-2.388814688E0,3.697246075E0,1.186207199E1
2.346806790E-1,-1.641823769E0,6.805518270E-1,1.373433781E1
2.366793770E-1,-1.210867524E0,-6.075286865E-1,1.100494766E1
2.386780750E-1,-1.742380261E0,1.968632340E0,4.851849556E0
2.406767730E-1,-1.747168660E0,4.381987572E0,2.960430384E0
2.426754710E-1,-7.511807680E-1,4.180874825E0,9.874884605E0
2.446741680E-1,1.975216344E-2,4.348468781E0,1.381095219E1
2.466728660E-1,9.247604012E-1,2.931101322E0,8.921992302E0
2.486716160E-1,3.342904091E0,-3.854066133E0,1.073200893E1
2.506704180E-1,3.472191095E0,-8.005612373E0,1.091396809E1
2.526692730E-1,3.132214308E0,-1.031841087E1,1.107677460E1
2.546681790E-1,1.465849996E0,-8.230667114E0,8.629899979E0
2.566671370E-1,-8.230068088E-1,-4.615422249E0,6.082469463E0
2.586661480E-1,-1.828571558E0,-2.374449492E0,7.480683327E0
2.606652100E-1,-2.704849482E0,-4.973953962E-1,8.486248016E0
2.626642730E-1,-3.408744574E0,1.039682031E0,9.405621529E0
2.646633350E-1,-3.504512787E0,1.666962981E0,1.354280186E1
2.666623980E-1,-4.064755917E0,4.113837242E0,1.151251888E1
2.686615120E-1,-3.767874956E0,4.808155537E0,1.020528507E1
2.706606270E-1,-3.164535999E0,3.989338636E0,1.187643719E1
2.726597410E-1,-2.853289843E0,4.506485939E0,1.162265205E1
2.746588560E-1,-2.920327425E0,6.024410248E0,1.100494766E1
2.766579710E-1,-3.260304213E0,7.992444038E0,1.118690777E1
2.786570850E-1,-3.121440411E0,9.242217064E0,1.265215874E1
2.806562000E-1,-3.394379377E0,1.065958405E1,1.258033276E1
2.826553140E-1,-3.370437384E0,1.175134087E1,1.143111610E1
2.846544290E-1,-2.977788448E0,1.057339287E1,1.028668785E1
2.866534910E-1,-1.148618221E0,7.911040783E0,1.047822380E1
2.886525540E-1,-2.436100245E-1,6.790554523E0,8.893261909E0
2.906516160E-1,1.346139908E0,5.583877087E0,8.591592789E0
2.926506790E-1,2.102707624E0,4.415506363E0,8.356961250E0
2.946496890E-1,3.127425909E0,2.940678120E0,8.754398346E0
2.966487000E-1,3.534440279E0,2.021304846E0,9.070432663E0
2.986477100E-1,3.654150248E0,1.226429820E0,8.620323181E0
3.006467210E-1,3.658938646E0,3.932476342E-1,8.629899979E0
3.026457310E-1,3.505709887E0,-6.643909961E-2,8.285135269E0
3.046447410E-1,3.318962097E0,-5.404910445E-1,7.614758492E0
3.066437520E-1,3.496133089E0,-1.249174714E0,7.131129742E0
3.086427620E-1,2.935889721E0,-1.072003841E0,5.843049049E0
3.106417730E-1,2.533663988E0,-1.258751512E0,5.503072739E0
3.126407830E-1,2.797026157E0,-2.369661093E0,1.013824749E1
3.146397930E-1,2.605489969E0,-1.004966140E0,9.027337074E0
3.166388040E-1,2.418742180E0,3.022679687E-1,7.250839710E0
3.186378140E-1,2.299032211E0,4.124012291E-1,7.327454090E0
3.206368250E-1,2.691681147E0,-1.143231317E-1,8.850166321E0
3.226358870E-1,2.811391354E0,-4.542997777E-1,1.000417137E1
3.246350020E-1,2.595913172E0,-2.531868219E-1,9.333795547E0
3.266341160E-1,2.265513420E0,5.805939063E-2,8.984241486E0
3.286332310E-1,2.030881643E0,2.064998895E-1,8.869319916E0
3.306323460E-1,2.351704597E0,3.980360329E-1,9.827000618E0
3.326314600E-1,1.824980259E0,1.236006618E0,9.405621529E0
3.346305750E-1,1.480215192E0,2.083554029E0,8.447940826E0
3.366296890E-1,1.528099179E0,2.686892748E0,8.826224327E0
3.386288040E-1,1.499368787E0,3.232770920E0,9.151836395E0
3.406279180E-1,1.355716705E0,3.682880878E0,8.615534782E0
3.426270330E-1,1.710058570E0,3.994127035E0,9.089587212E0
3.446261480E-1,1.580771685E0,4.391564369E0,8.965087891E0
3.466252100E-1,1.858499050E0,4.980537891E0,9.008183479E0
3.486241680E-1,1.652597666E0,5.157709122E0,8.831012726E0
3.506231270E-1,1.729212165E0,4.698022366E0,9.846154213E0
3.526219810E-1,1.700481772E0,4.506485939E0,1.086608410E1
3.546207310E-1,1.968632340E0,4.022857189E0,1.464413452E1
3.566194810E-1,1.609502077E0,4.147356033E0,1.813488007E1
3.586182310E-1,8.289923668E-1,4.812943935E0,6.738480568E0
3.606169810E-1,7.811083198E-1,2.595913172E0,9.601945877E0
3.626157310E-1,7.523778677E-1,4.109048843E0,9.166201591E0
3.646144810E-1,6.470330358E-1,5.152920723E0,1.111508179E1
3.666132310E-1,5.225345492E-1,4.932653904E0,9.870096207E0
3.686119810E-1,3.645172119E-1,3.998915434E0,9.386467934E0
3.706107830E-1,-2.813187055E-2,4.113837242E0,9.841365814E0
3.726096370E-1,-8.978256024E-3,4.391564369E0,1.054526138E1
3.746085430E-1,-5.165489912E-1,4.367622375E0,9.161413193E0
3.766075020E-1,-4.782418013E-1,3.764283657E0,9.716867447E0
3.786065120E-1,-2.005143911E-1,3.457825899E0,1.004247856E1
3.806055230E-1,-8.948329091E-1,3.893570423E0,9.645041466E0
3.826045330E-1,-7.416039705E-1,3.376422882E0,9.625887871E0
3.846035430E-1,-1.043273449E0,3.194463730E0,9.759963036E0
3.866025540E-1,-1.186925530E0,3.227982521E0,1.010951710E1
3.886009910E-1,-1.349731207E0,3.314173698E0,9.994594574E0
3.905994290E-1,-1.392826796E0,3.453037500E0,8.931569099E0
3.925978660E-1,-1.048061848E0,3.476979494E0,9.027337074E0
3.945963040E-1,-1.388038397E0,3.812167645E0,1.004726696E1
3.965947930E-1,-1.785475969E0,3.515286684E0,1.067933655E1
3.985933350E-1,-2.072780132E0,2.998139143E0,8.960299492E0
4.005919290E-1,-1.866878748E0,2.399588585E0,8.385691643E0
4.025905750E-1,-1.579574585E0,1.159392118E0,1.057878017E1
4.045892730E-1,-1.823783159E0,1.820191860E0,8.864531517E0
4.065880230E-1,-1.622670174E0,1.331774712E0,1.035372543E1
4.085868250E-1,-1.818994761E0,4.746504724E-1,8.701725960E0
4.105856790E-1,-1.297058821E0,-3.537433147E-1,8.333019257E0
4.125845850E-1,-1.493383288E0,-4.112041295E-1,1.123479176E1
4.145835430E-1,-1.933916450E0,-3.292027488E-2,8.591592789E0
4.165825540E-1,-1.167771935E0,-1.909375787E-1,1.046385860E1
4.185816160E-1,-9.570821524E-1,-8.565256596E-1,1.014303589E1
4.205806790E-1,-1.871667147E0,-4.249707982E-2,9.702502251E0
4.225797410E-1,-1.440710902E0,-5.165489912E-1,9.740809441E0
4.245788040E-1,-1.028908134E0,-3.770867735E-2,9.812635422E0
4.265776060E-1,1.969230920E-1,5.991489887E-1,1.180461121E1
4.285763560E-1,1.207276225E0,1.949478745E0,9.965864182E0
4.305750020E-1,5.991489887E-1,2.811391354E0,1.272877312E1
4.325736480E-1,-5.596446395E-1,4.669291973E0,1.047822380E1
4.345722930E-1,-1.081580639E0,5.272630692E0,9.664195061E0
4.365709390E-1,-1.273116708E0,5.612607479E0,8.438364029E0
4.385695850E-1,-2.355295897E0,5.196016312E0,1.129225254E1
4.405682310E-1,-2.814982653E0,6.780977726E0,7.739256859E0
4.425668770E-1,-3.619434357E0,7.077858925E0,8.165425301E0
4.445655230E-1,-2.728791475E0,5.478531837E0,1.065060616E1
4.465641680E-1,-2.460640907E0,5.296572685E0,1.066497135E1
4.485628140E-1,-2.719214678E0,5.689221859E0,9.065644264E0
4.505614600E-1,-1.637035370E0,6.642114162E0,1.032978344E1
4.525601060E-1,-1.416768909E0,6.139331818E0,1.066497135E1
4.545587520E-1,-7.607575655E-1,5.339668274E0,9.769539833E0
4.565574500E-1,-6.171054840E-1,6.608595371E0,8.107964516E0
4.585562000E-1,-1.909375787E-1,5.124190331E0,1.224514484E1
4.605550020E-1,6.613982320E-1,4.693233967E0,8.644265175E0
4.625538040E-1,1.135450125E0,4.089895248E0,9.319430351E0
4.645526060E-1,1.259948611E0,5.014056683E0,9.046490669E0
4.665514600E-1,1.001374841E0,5.952583790E0,1.037287903E1
4.685503660E-1,1.317409515E0,5.459378242E0,8.902838707E0
4.705493250E-1,1.097142935E0,4.923077106E0,1.117254257E1
4.725482830E-1,1.087566137E0,5.885546207E0,8.433575630E0
4.745472410E-1,1.935113549E0,4.449025154E0,9.075222015E0
4.765462000E-1,2.141014814E0,4.496909142E0,1.156519127E1
4.785451580E-1,1.010951638E0,5.607819080E0,9.156624794E0
4.805441160E-1,1.374870300E0,5.535993099E0,7.619546890E0
4.825430750E-1,2.485780001E0,4.468178749E0,1.195783997E1
4.845420330E-1,1.417966008E0,5.737105846E0,7.629123688E0
4.865409910E-1,1.844133854E0,4.410717964E0,1.213980007E1
4.885399500E-1,1.628655672E0,5.349245071E0,9.812635422E0
4.905389080E-1,1.015740037E0,4.721964359E0,7.571662903E0
4.925376060E-1,1.168969035E0,4.659715176E0,9.654618263E0
4.945363040E-1,1.322197914E0,5.770624638E0,1.214937687E1
4.965350020E-1,9.582792521E-1,6.575076580E0,7.413645744E0
4.985337000E-1,5.608417392E-1,4.908711910E0,9.855731010E0
5.005323980E-1,9.534908533E-1,5.191227913E0,1.039682102E1
5.025310960E-1,7.475894690E-1,5.962160587E0,7.274781704E0
5.045297930E-1,7.571662664E-1,5.507262230E0,1.063624096E1
5.065284910E-1,8.337807655E-1,5.636549473E0,1.156997967E1
5.085271890E-1,5.129576921E-1,7.283760071E0,7.691372871E0
5.105258870E-1,5.560533404E-1,5.387552261E0,1.195305157E1
5.125245850E-1,3.693056107E-1,7.848791599E0,7.423222542E0
5.145232830E-1,7.667431235E-1,5.909488201E0,1.454357815E1
5.165220330E-1,3.836708367E-1,8.624512672E0,6.187814236E0
5.185208350E-1,4.602852762E-1,6.196792603E0,1.237922001E1
5.205196370E-1,9.965864420E-1,6.666056156E0,7.949946880E0
5.225184390E-1,1.595136881E0,5.061941147E0,9.927556992E0
5.245172930E-1,1.140238523E0,6.594230175E0,1.118211937E1
5.265162000E-1,1.030105233E0,7.599794865E0,7.993042469E0
5.285151060E-1,6.087257862E-1,7.657255650E0,1.116775417E1
5.305140120E-1,9.056068063E-1,6.958148479E0,8.740033150E0
5.325129180E-1,8.481459618E-1,7.494450092E0,7.059303761E0
5.345118250E-1,8.768763542E-1,6.718728542E0,1.237922001E1
5.365107310E-1,1.494580388E0,6.661267757E0,1.033936024E1
5.385096370E-1,1.001374841E0,7.245452881E0,6.479907036E0
5.405085430E-1,1.671751380E0,5.698798656E0,1.263300514E1
5.425074500E-1,1.408389091E0,6.153697014E0,1.194347477E1
5.445063560E-1,1.590348482E0,7.685986042E0,3.712209702E0
5.465051580E-1,1.470638394E0,5.023633480E0,1.356674385E1
5.485039080E-1,2.131438017E0,6.522404194E0,6.465541840E0
5.505026580E-1,1.978209138E0,3.740341663E0,1.182376480E1
5.525012520E-1,1.920748353E0,4.841674328E0,8.682572365E0
5.544998460E-1,1.585560083E0,7.010821342E0,6.570886612E0
5.564984390E-1,2.016516447E0,4.200028419E0,1.575504398E1
5.584970330E-1,1.863287449E0,6.632537365E0,6.379350662E0
5.604956270E-1,1.489791989E0,5.564723492E0,1.060272217E1
5.624942210E-1,1.892017841E0,5.425859451E0,1.104804420E1
5.644928140E-1,1.595136881E0,5.694010258E0,8.160636902E0
5.664914080E-1,1.250371814E0,5.698798656E0,9.376891136E0
5.684900020E-1,1.528099179E0,5.990890980E0,1.133534813E1
5.704885960E-1,1.552041292E0,5.310937881E0,8.869319916E0
5.724871890E-1,1.010951638E0,6.105813026E0,9.841365814E0
5.744858350E-1,1.164180517E0,6.747458935E0,8.831012726E0
5.764844810E-1,7.380126715E-1,6.172850609E0,1.010472870E1
5.784831270E-1,1.063624144E0,5.564723492E0,1.361462784E1
5.804818250E-1,1.173757434E0,6.101024628E0,8.069656372E0
5.824805750E-1,1.322197914E0,4.051588058E0,1.172799683E1
5.844793250E-1,1.374870300E0,6.699574947E0,9.477447510E0
5.864780750E-1,1.638232470E0,6.728305340E0,7.629123688E0
5.884768770E-1,1.245583415E0,6.680421352E0,6.896498203E0
5.904757310E-1,1.695693374E0,3.745130062E0,1.330338192E1
5.924745850E-1,9.917980433E-1,4.176086426E0,7.921216488E0
5.944734390E-1,1.288679123E0,4.132990837E0,1.217810726E1
5.964722930E-1,1.623867273E0,5.267842293E0,1.034893703E1
5.984711480E-1,1.590348482E0,7.877521992E0,4.784811974E0
6.004700020E-1,1.911171556E0,3.472191095E0,1.238400841E1
6.024688560E-1,2.265513420E0,5.741894245E0,7.763198853E0
6.044677100E-1,1.992574334E0,4.827309132E0,1.102410126E1
6.064665640E-1,2.002151251E0,4.291007996E0,1.150294209E1
6.084654180E-1,2.222417831E0,5.301361084E0,9.544485092E0
6.104641680E-1,1.623867273E0,6.771400928E0,6.293159008E0
6.124628140E-1,1.935113549E0,5.808931828E0,9.989806175E0
6.144614080E-1,2.390011787E0,4.717175961E0,1.373433781E1
6.164599500E-1,1.523310781E0,6.713940144E0,7.724891663E0
6.184584910E-1,1.705270171E0,5.761047840E0,9.755174637E0
6.204570330E-1,1.820191860E0,7.556699276E0,8.778340340E0
6.224555750E-1,1.935113549E0,6.211157799E0,9.865307808E0
6.244541160E-1,1.681328177E0,4.822520733E0,1.284369469E1
6.264526580E-1,2.265513420E0,5.349245071E0,1.070806694E1
6.284512000E-1,2.227206230E0,7.039551735E0,5.919663906E0
6.304497410E-1,2.208052635E0,5.737105846E0,1.290115547E1
6.324482830E-1,1.868075848E0,4.286219597E0,9.558850288E0
6.344468250E-1,1.944690347E0,5.435436249E0,9.841365814E0
6.364453660E-1,1.954267144E0,7.034763336E0,7.269993305E0
6.384439080E-1,1.963843942E0,5.660491467E0,1.098100567E1
6.404424500E-1,2.251148224E0,6.603806973E0,6.432023048E0
6.424409910E-1,2.227206230E0,5.722740650E0,1.225472164E1
6.444395330E-1,2.385223389E0,6.263830185E0,7.428010941E0
6.464380750E-1,2.021304846E0,4.970961094E0,1.297298145E1
6.484366160E-1,2.682104349E0,4.573523998E0,9.041702271E0
6.504351580E-1,2.284667015E0,5.483320236E0,1.016697788E1
6.524337000E-1,2.145803213E0,5.239111900E0,5.986701488E0
6.544322410E-1,2.260725021E0,4.736329556E0,1.046385860E1
6.564307830E-1,2.299032211E0,4.310161591E0,1.061708736E1
6.584293250E-1,2.385223389E0,4.080318451E0,9.850942612E0
6.604278660E-1,1.963843942E0,3.850474834E0,1.032499504E1
6.624264080E-1,2.174533606E0,3.156156301E0,1.238879681E1
6.644249500E-1,1.877652645E0,4.836885929E0,6.800729752E0
6.664235430E-1,2.160168409E0,3.232770920E0,1.364335823E1
6.684221890E-1,1.604713678E0,4.243124008E0,6.412869453E0
6.704208870E-1,1.561618090E0,3.275866508E0,1.545337486E1
6.724196370E-1,1.145026922E0,4.669291973E0,5.981913090E0
6.744184390E-1,6.566098332E-1,4.128202438E0,9.510966301E0
6.764172930E-1,1.427542806E0,3.634996653E0,1.000895977E1
6.784162000E-1,4.890156984E-1,4.334103584E0,5.646724701E0
6.804151580E-1,5.081692934E-1,1.456273198E0,1.353801346E1
6.824141680E-1,2.454056777E-2,1.743577361E0,1.011909389E1
6.844132310E-1,3.890577704E-2,2.193687201E0,1.036809063E1
6.864123460E-1,-4.249707982E-2,2.605489969E0,9.161413193E0
6.884115120E-1,-2.867056429E-1,3.117849112E0,6.853402138E0
6.904106790E-1,-6.506243348E-1,1.987785935E0,1.100973606E1
6.924098460E-1,-1.191115379E-1,8.098387122E-1,9.453505516E0
6.944090120E-1,5.327098817E-2,2.782660961E0,6.762422562E0
6.964081790E-1,7.242459804E-2,1.111508131E0,1.056441498E1
6.984071890E-1,-1.143231317E-1,6.613982320E-1,8.969876289E0
7.004059390E-1,1.346738487E-1,8.816647530E-1,1.100494766E1
7.024046890E-1,1.777694821E-1,1.427542806E0,1.142632771E1
7.044034390E-1,-4.351461530E-1,8.433575630E-1,9.554061890E0
7.064021890E-1,-4.303577542E-1,1.490390599E-1,1.349491787E1
7.084009390E-1,-4.878185987E-1,1.662174582E0,6.953958988E0
7.103996890E-1,-9.139865041E-1,1.676539779E0,9.127894402E0
7.123984390E-1,-7.942764163E-1,-9.516951442E-2,1.293946266E1
7.143971890E-1,-1.234809518E0,1.317409515E0,8.404845238E0
7.163959390E-1,-8.517372608E-1,-1.225232720E0,1.382052898E1
7.183946370E-1,-1.373673201E0,1.585560083E0,6.819883347E0
7.203933350E-1,-1.479018092E0,2.495356798E0,8.002618790E0
7.223920330E-1,-1.134253025E0,1.155202314E-1,1.190516758E1
7.243907310E-1,-1.689707875E0,-3.872621357E-1,6.757634163E0
7.263894290E-1,-1.483806491E0,-1.048061848E0,1.149815369E1
7.283881270E-1,-8.661024570E-1,6.087257862E-1,6.934805393E0
7.303868250E-1,-1.225232720E0,-1.153406620E0,1.097142887E1
7.323855230E-1,-9.187749028E-1,-8.613140583E-1,1.253723717E1
7.343842210E-1,-1.694496274E0,-8.996213078E-1,6.681019783E0
7.363829180E-1,-1.354519606E0,8.577227592E-1,1.069849014E1
7.383816160E-1,-1.440710902E0,4.076128304E-1,7.969100475E0
7.403803140E-1,-1.924339652E0,-2.307411909E0,1.090917969E1
7.423790120E-1,-1.411980510E0,-1.311424017E0,1.123479176E1
7.443777100E-1,-1.775899053E0,-3.968389332E-1,6.666654587E0
7.463764080E-1,-1.857301950E0,-2.565985680E0,1.135450172E1
7.483751060E-1,-1.641823769E0,-3.365648985E0,1.118211937E1
7.503738040E-1,-2.053626537E0,-6.075286865E-1,8.184578896E0
7.523725020E-1,-1.962646842E0,-1.325789213E0,8.476671219E0
7.543712000E-1,-2.211643934E0,-1.407191992E0,7.265204906E0
7.563698980E-1,-1.048061848E0,-1.747168660E0,1.267610073E1
7.583685960E-1,-1.498171687E0,-1.574786186E0,9.621099472E0
7.603672930E-1,-1.368884802E0,-3.403956175E0,1.412219906E1
7.623659910E-1,-1.541267395E0,3.453635871E-1,6.379350662E0
7.643646890E-1,-1.105522633E0,3.501519859E-1,8.347384453E0
7.663633870E-1,-9.666589499E-1,-2.168548107E0,1.270483112E1
7.683620330E-1,-8.134300113E-1,-3.523666382E0,1.141675091E1
7.703606790E-1,-5.979518890E-1,-3.131017208E0,1.142632771E1
7.723593250E-1,-1.086369038E0,3.932476342E-1,5.962759495E0
7.743579710E-1,-5.021837950E-1,-7.032967210E-1,1.123479176E1
7.763566160E-1,-5.740098357E-1,-2.728791475E0,9.769539833E0
7.783552620E-1,-8.325836658E-1,-1.378461599E0,8.974664688E0
7.803539080E-1,8.200141042E-2,-4.207809567E-1,8.831012726E0
7.823525540E-1,-1.047463268E-1,8.200141042E-2,9.376891136E0
7.843512000E-1,3.070563674E-1,-8.613140583E-1,9.070432663E0
7.863498980E-1,1.092354536E0,-1.799841166E0,1.116296577E1
7.883486480E-1,1.121084929E0,-2.197278500E0,1.110550499E1
7.903474500E-1,1.207276225E0,-2.436698675E0,1.145505810E1
7.923463040E-1,1.236006618E0,1.825578809E-1,8.414422035E0
7.943452100E-1,1.192911029E0,7.954735160E-1,4.880579948E0
7.963441680E-1,1.461061597E0,-2.962824702E-1,1.079425812E1
7.983431270E-1,1.944690347E0,-1.814206362E0,1.189080238E1
8.003420850E-1,1.705270171E0,-1.684919477E0,1.164180565E1
8.023410430E-1,1.528099179E0,-1.238999367E-1,7.734468460E0
8.043398460E-1,1.437119603E0,-8.978256024E-3,9.932345390E0
8.063383870E-1,1.470638394E0,-1.129464626E0,9.391256332E0
8.083369290E-1,1.724423766E0,-4.159925580E-1,9.731232643E0
8.103354710E-1,1.729212165E0,-1.445499301E0,1.330338192E1
8.123340120E-1,1.480215192E0,-4.830302000E-1,7.485471725E0
8.143325540E-1,1.556829691E0,5.273229480E-1,8.050502777E0
8.163310960E-1,1.839345455E0,-9.618705511E-1,1.100973606E1
8.183296370E-1,1.959055543E0,-1.268328309E0,1.024838066E1
8.203281790E-1,1.786673069E0,-1.765723825E-1,8.514978409E0
8.223267210E-1,1.810615063E0,-1.929128051E0,1.147421169E1
8.243252620E-1,1.623867273E0,-1.603516579E0,1.084214211E1
8.263238560E-1,1.805826664E0,-4.351461530E-1,9.846154213E0
8.283224500E-1,1.130661726E0,9.582792521E-1,6.944382191E0
8.303210430E-1,1.355716705E0,2.400187254E-1,9.156624794E0
8.323196370E-1,1.489791989E0,2.974795699E-1,1.051653099E1
8.343182830E-1,1.322197914E0,-5.979518890E-1,1.358110905E1
8.363169810E-1,8.625111580E-1,-3.824737072E-1,6.508637428E0
8.383157310E-1,9.487023950E-1,1.777694821E-1,1.082777691E1
8.403144810E-1,5.847837925E-1,-1.258751512E0,8.203732491E0
8.423132310E-1,4.938040972E-1,-1.052850246E0,9.678560257E0
8.443119810E-1,7.428010702E-1,-1.862090349E0,1.077989292E1
8.463107310E-1,4.267664552E-1,-1.656189084E0,8.098387718E0
8.483094810E-1,8.481459618E-1,-5.740098357E-1,1.042076302E1
8.503082310E-1,7.906851172E-1,-6.458359361E-1,8.524555206E0
8.523068250E-1,1.969230920E-1,-8.661024570E-1,1.130182934E1
8.543053140E-1,2.926911712E-1,-1.153406620E0,9.783905029E0
8.563037000E-1,-2.483984232E-1,-1.273116708E0,1.089960289E1
8.583020850E-1,4.746504724E-1,-3.202244639E-1,7.672219276E0
8.603004710E-1,-3.728969097E-1,1.346738487E-1,1.193868637E1
8.622988560E-1,-6.171054840E-1,-6.649895310E-1,9.305065155E0
8.642972410E-1,-8.852560520E-1,-1.234809518E0,1.078468132E1
8.662956790E-1,-3.585317135E-1,-6.458359361E-1,9.707290649E0
8.682941680E-1,-5.261258483E-1,5.512649417E-1,1.081820011E1
8.702927100E-1,-8.134300113E-1,-8.559270948E-2,1.083735371E1
8.722913040E-1,-7.176619768E-1,1.044470549E0,7.887697697E0
8.742899500E-1,-1.191115379E-1,6.278793812E-1,1.353801346E1
8.762886480E-1,-9.906009436E-1,1.326986313E0,4.693832397E0
8.782873980E-1,-9.187749028E-1,1.039682031E0,1.257075596E1
8.802862000E-1,-9.666589499E-1,-2.336142302E0,1.200093555E1
8.822850540E-1,-1.081580639E0,-4.638765752E-1,9.405621529E0
8.842839600E-1,-7.511807680E-1,2.634220362E0,4.334702015E0
8.862829180E-1,-6.266822815E-1,8.002619147E-1,1.010951710E1
8.882818770E-1,-6.793547273E-1,-9.235633016E-1,1.253244877E1
8.902808350E-1,-5.644330382E-1,-4.207809567E-1,1.098100567E1
8.922797930E-1,-1.182137132E0,-4.255693555E-1,9.352949142E0
8.942787520E-1,-1.072003841E0,-1.234809518E0,1.122042656E1
8.962777100E-1,-1.268328309E0,-3.537433147E-1,7.523778915E0
8.982762520E-1,-7.128735781E-1,3.549404144E-1,9.453505516E0
9.002747930E-1,-5.787982345E-1,4.411316514E-1,8.500613213E0
9.022733350E-1,-4.064157307E-1,5.991489887E-1,8.299500465E0
9.042718770E-1,-2.723404467E-1,-1.158195019E0,1.460103893E1
9.062704180E-1,-3.250128925E-1,-3.728969097E-1,9.142259598E0
9.082689600E-1,-1.191115379E-1,2.466626406E0,9.645041466E0
9.102675020E-1,-8.661024570E-1,2.749142170E0,7.064092159E0
9.122660430E-1,-9.187749028E-1,5.704185367E-1,9.985017776E0
9.142645850E-1,-6.171054840E-1,4.650736749E-1,1.263300514E1
9.162631270E-1,-1.172560334E0,1.226429820E0,9.884461403E0
9.182616680E-1,-1.038484931E0,7.619546652E-1,8.103176117E0
9.202602100E-1,-1.028908134E0,1.082777739E0,1.006163311E1
9.222587520E-1,-5.165489912E-1,7.428010702E-1,1.243189240E1
9.242572930E-1,-4.686649740E-1,1.873462796E-1,7.088034153E0
9.262558350E-1,-5.548562407E-1,4.938040972E-1,1.237922001E1
9.282543770E-1,-4.016273320E-1,1.921346933E-1,6.666654587E0
9.302529180E-1,-1.238999367E-1,-1.014542937E0,1.236964321E1
9.322514600E-1,-3.298012912E-1,5.560533404E-1,8.998606682E0
9.342500020E-1,-3.393780887E-1,1.082777739E0,5.029020786E0
9.362485430E-1,-1.526303589E-1,2.495955229E-1,1.260427475E1
9.382471370E-1,-3.824737072E-1,-2.723404467E-1,9.860519409E0
9.402457310E-1,-3.010708690E-1,-5.686229095E-2,1.245104599E1
9.422443250E-1,-4.399345517E-1,4.076128304E-1,7.878120899E0
9.442429710E-1,-5.787982345E-1,2.932897024E-2,8.874108315E0
9.462416680E-1,-1.813607812E-1,1.791461468E0,1.017176628E1
9.482404180E-1,-1.430535465E-1,4.219780564E-1,9.692925453E0
9.502392210E-1,-1.861491799E-1,8.720879555E-1,8.084021568E0
9.522380230E-1,2.926911712E-1,7.763199210E-1,1.268567753E1
9.542368250E-1,-2.148796022E-1,9.678560495E-1,8.486248016E0
9.562356270E-1,9.636662155E-2,9.582792521E-1,9.530119896E0
9.582344290E-1,-3.154360652E-1,3.074753523E0,6.915651798E0
9.602331790E-1,3.166331649E-1,1.130661726E0,1.305438519E1
9.622317210E-1,1.011550203E-1,-2.627636492E-1,1.395460415E1
9.642301580E-1,-3.681085110E-1,1.341351509E0,6.278793812E0
9.662285960E-1,-3.872621357E-1,2.911947727E0,1.037766743E1
9.682270330E-1,-5.404910445E-1,9.630676508E-1,7.863755703E0
9.702254710E-1,-5.404910445E-1,1.178545833E0,1.155082607E1
9.722239080E-1,-3.441664875E-1,-2.292448133E-1,1.080862331E1
9.742223460E-1,-4.112041295E-1,7.332242727E-1,9.147047997E0
9.762208350E-1,-6.075286865E-1,1.686116576E0,7.930793285E0
9.782193770E-1,-4.638765752E-1,-1.861491799E-1,1.135450172E1
9.802179710E-1,-4.590881765E-1,8.481459618E-1,7.763198853E0
9.822166160E-1,-1.478419602E-1,1.178545833E0,1.213022327E1
9.842153140E-1,-2.292448133E-1,1.729810685E-1,9.831789017E0
9.862140640E-1,-4.255693555E-1,7.188590765E-1,8.917203903E0
9.882128660E-1,-6.602011323E-1,2.054823637E0,7.653065681E0
9.902117210E-1,-4.495113790E-1,8.242039084E-1,9.075222015E0
9.922106270E-1,-2.196680009E-1,-2.053626537E0,1.086129570E1
9.942095850E-1,-3.968389332E-1,-2.627636492E-1,1.039682102E1
9.962085430E-1,-7.655459642E-1,1.135450125E0,9.477447510E0
9.982075020E-1,-7.320271730E-1,2.495955229E-1,8.854954720E0
1.000206460E0,-7.032967210E-1,-9.666589499E-1,1.365772343E1
1.002205418E0,-6.458359361E-1,-1.435922503E0,1.070806694E1
1.004204377E0,-8.373720646E-1,-5.021837950E-1,8.907627106E0
1.006203075E0,-9.522937536E-1,2.409165382E0,4.195838451E0
1.008201773E0,-9.475052953E-1,-5.931634903E-1,1.187164879E1
1.010200471E0,-1.388038397E0,-1.048061848E0,8.888473511E0
1.012199168E0,-1.115099430E0,-9.516951442E-2,1.377264500E1
1.014197866E0,-1.076792240E0,7.721300423E-2,7.356184959E0
1.016196564E0,-7.894880176E-1,4.028244317E-1,1.119648457E1
1.018195262E0,-1.249174714E0,1.848922253E0,6.685808182E0
1.020193960E0,-9.379284978E-1,4.459200799E-1,1.121084976E1
1.022192658E0,-9.906009436E-1,1.963843942E0,1.110071659E1
1.024191356E0,-1.459864497E0,1.805826664E0,6.360196590E0
1.026190054E0,-1.388038397E0,1.212064624E0,1.000417137E1
1.028188752E0,-1.014542937E0,1.017535757E-2,9.333795547E0
1.030187450E0,-9.714473486E-1,5.225345492E-1,6.451176643E0
1.032186148E0,-1.047463268E-1,-2.111087322E0,1.342309189E1
1.034184846E0,-9.038111567E-2,-1.376665942E-2,6.460753441E0
1.036183543E0,6.230909824E-1,-1.881243944E0,1.498890018E1
1.038182241E0,6.763619930E-2,-1.057638645E0,6.781576157E0
1.040180679E0,-7.122749835E-2,3.740940094E-1,1.066018295E1
1.042179116E0,1.496376097E-2,-7.272387743E-1,1.004726696E1
1.044177554E0,3.118447661E-1,-1.206079125E0,1.248456478E1
1.046175991E0,1.011550203E-1,-1.397615194E0,1.154603767E1
1.048174429E0,-8.086416125E-1,-8.080431074E-2,7.830236435E0
1.050172866E0,-7.272387743E-1,1.154603720E0,9.099164009E0
1.052171304E0,-6.649895310E-1,1.729810685E-1,1.226908684E1
1.054169741E0,-6.027402878E-1,-1.627458572E0,8.136694908E0
1.056168179E0,-3.106476665E-1,-6.841431260E-1,8.993818283E0
1.058166616E0,-1.430535465E-1,-1.986588836E0,9.017760277E0
1.060165054E0,1.975216344E-2,-2.728791475E0,9.951498985E0
1.062163491E0,9.056068063E-1,-5.510853767E0,1.326986313E1
1.064161981E0,6.183025837E-1,-4.332906723E0,1.114860058E1
1.066160523E0,6.901286244E-1,-3.499724388E0,7.586028099E0
1.068159116E0,1.054047346E0,-3.198055029E0,1.045907021E1
1.070157762E0,1.221641421E0,-5.008071423E0,9.439140320E0
1.072156460E0,1.164180517E0,-4.529231071E0,1.072243214E1
1.074155158E0,8.098387122E-1,-3.451840401E0,4.056974888E0
1.076153856E0,1.322197914E0,-5.137358189E0,1.008557510E1
1.078152554E0,1.106719732E0,-4.917091846E0,6.341042995E0
1.080151252E0,1.959055543E0,-7.129333973E0,1.116296577E1
1.082149950E0,1.815403461E0,-7.507617950E0,1.142632771E1
1.084148648E0,1.638232470E0,-6.099827290E0,7.202955723E0
1.086147346E0,1.992574334E0,-5.726331711E0,1.052610779E1
1.088146043E0,1.973420739E0,-4.447828293E0,7.140706539E0
1.090144741E0,1.815403461E0,-3.964199543E0,1.001374817E1
1.092143439E0,2.169745207E0,-4.859631062E0,1.106240940E1
1.094142137E0,1.508945584E0,-4.337695122E0,1.118690777E1
1.096140835E0,1.312621117E0,-2.685695648E0,8.012195587E0
1.098139533E0,1.542464495E0,-5.022436619E0,1.267610073E1
1.100138231E0,2.006939650E0,-4.993706226E0,1.005205631E1
1.102136929E0,2.131438017E0,-4.026448727E0,9.525331497E0
1.104135627E0,2.366069794E0,-5.850830555E0,1.532887650E1
1.106134325E0,2.519298792E0,-4.251503468E0,9.645041466E0
1.108132918E0,1.973420739E0,-5.381567001E0,1.045907021E1
1.110131512E0,1.355716705E0,-1.656189084E0,4.157531261E0
1.112130106E0,1.671751380E0,-5.003283024E0,1.453878975E1
1.114128700E0,9.391255975E-1,-6.401496887E0,8.610746384E0
1.116127293E0,1.374870300E0,-3.734356165E0,9.836577415E0
1.118125887E0,1.542464495E0,-4.663306236E0,8.749609947E0
1.120124325E0,1.212064624E0,-5.582679749E0,8.893261909E0
1.122122762E0,8.960300088E-1,-5.664082527E0,6.963535786E0
1.124121200E0,1.781884670E0,-5.917868137E0,8.548497200E0
1.126119637E0,1.973420739E0,-7.833229542E0,9.247604370E0
1.128118075E0,1.963843942E0,-9.111733437E0,1.113423538E1
1.130116512E0,2.011728048E0,-1.099357605E1,9.362525940E0
1.132114950E0,2.241571426E0,-1.063923359E1,1.141196251E1
1.134113387E0,1.695693374E0,-1.108455563E1,1.153646088E1
1.136111877E0,1.963843942E0,-1.024179649E1,1.052610779E1
1.138110418E0,2.299032211E0,-1.067275238E1,8.275558472E0
1.140109012E0,2.299032211E0,-1.082119274E1,1.144069290E1
1.142107658E0,1.939901948E0,-9.633668900E0,6.647500992E0
1.144106356E0,1.853710651E0,-8.517971039E0,1.134971333E1
1.146105106E0,1.145026922E0,-9.940127373E0,6.015431881E0
1.148103908E0,1.532887697E0,-1.141974354E1,1.762252235E1
1.150102762E0,1.489791989E0,-9.916184425E0,6.183025837E0
1.152101668E0,1.336563110E0,-1.001195335E1,1.175672722E1
1.154100575E0,6.901286244E-1,-1.021306610E1,5.962759495E0
1.156099481E0,1.125873327E0,-9.442132950E0,1.153167248E1
1.158098387E0,9.822212458E-1,-9.691129684E0,1.176151562E1
1.160097293E0,1.092354536E0,-1.090259552E1,1.123479176E1
1.162096200E0,8.816647530E-1,-1.111807442E1,1.119648457E1
1.164094950E0,7.954735160E-1,-8.891466141E0,6.479907036E0
1.166093700E0,1.236006618E0,-1.223856068E1,8.802282333E0
1.168092346E0,8.816647530E-1,-1.039502525E1,1.000417137E1
1.170090991E0,1.149815321E0,-1.117074680E1,9.554061890E0
1.172089533E0,1.135450125E0,-9.700706482E0,8.850166321E0
1.174088075E0,6.566098332E-1,-1.141495514E1,9.625887871E0
1.176086616E0,9.822212458E-1,-1.025616169E1,9.113529205E0
1.178085158E0,4.890156984E-1,-1.041896725E1,1.134971333E1
1.180083700E0,4.507084787E-1,-9.422979355E0,1.076073933E1
1.182082241E0,2.932897024E-2,-8.972869873E0,8.787917137E0
1.184080783E0,3.214215636E-1,-8.709506989E0,1.019091988E1
1.186079325E0,-6.165069342E-2,-9.245808601E0,1.136407852E1
1.188077866E0,2.454056777E-2,-7.646481514E0,6.187814236E0
1.190076408E0,3.645172119E-1,-8.541913033E0,1.066497135E1
1.192074950E0,7.332242727E-1,-8.565855026E0,8.802282333E0
1.194073491E0,5.081692934E-1,-8.245032310E0,1.077989292E1
1.196072033E0,-8.978256024E-3,-8.944138527E0,1.055483818E1
1.198070575E0,-8.080431074E-2,-9.408614159E0,1.196262836E1
1.200069116E0,1.250970364E-1,-7.469310760E0,9.597157478E0
1.202067658E0,-4.686649740E-1,-6.506841660E0,6.637924194E0
1.204066200E0,1.496376097E-2,-8.130110741E0,1.252766037E1
1.206064741E0,2.064998895E-1,-8.465298653E0,9.214085579E0
1.208063283E0,-1.855506375E-2,-6.746262074E0,9.056067467E0
1.210061825E0,5.273229480E-1,-7.196371555E0,9.515754700E0
1.212060366E0,7.475894690E-1,-8.661623001E0,1.106240940E1
1.214058908E0,7.475894690E-1,-6.832453251E0,9.965864182E0
1.216057450E0,2.735375464E-1,-7.536348343E0,9.822212219E0
1.218056043E0,4.554968774E-1,-9.494805336E0,9.463082314E0
1.220054689E0,5.656301379E-1,-9.877877235E0,1.003290176E1
1.222053387E0,5.129576921E-1,-8.915408134E0,7.135918140E0
1.224052137E0,1.135450125E0,-9.858723640E0,1.017655468E1
1.226050939E0,1.207276225E0,-9.279327393E0,1.095706367E1
1.228049793E0,7.763199210E-1,-9.169194221E0,9.127894402E0
1.230048700E0,1.207276225E0,-9.317634583E0,1.024359226E1
1.232047658E0,3.357867897E-1,-7.818864346E0,8.175002098E0
1.234046616E0,2.352303118E-1,-7.507617950E0,9.645041466E0
1.236045575E0,7.332242727E-1,-8.675988197E0,1.154124928E1
1.238044533E0,4.267664552E-1,-7.148487568E0,8.696937561E0
1.240043491E0,1.077989340E0,-7.229890347E0,9.223662376E0
1.242042450E0,3.836708367E-1,-7.565078735E0,1.060272217E1
1.244041408E0,5.895721912E-1,-7.411849976E0,1.134492493E1
1.246040210E0,4.219780564E-1,-7.392696381E0,9.324218750E0
1.248038752E0,4.650736749E-1,-6.952163219E0,1.052610779E1
1.250037293E0,3.309983909E-1,-7.952939510E0,9.405621529E0
1.252035835E0,4.267664552E-1,-7.694365501E0,1.068412495E1
1.254034377E0,7.380126715E-1,-6.894702435E0,8.807070732E0
1.256032918E0,5.991489887E-1,-6.104615688E0,9.343372345E0
1.258031460E0,6.039373875E-1,-6.181230068E0,1.014782429E1
1.260030002E0,7.523778677E-1,-6.181230068E0,9.994594574E0
1.262028543E0,6.374561787E-1,-7.014412403E0,9.118317604E0
1.264027085E0,8.337807655E-1,-7.100603580E0,9.285911560E0
1.266025627E0,1.240795016E0,-6.224325657E0,9.329007149E0
1.268024168E0,1.006163239E0,-5.826888561E0,1.093791008E1
1.270022710E0,5.560533404E-1,-5.530007362E0,8.759186745E0
1.272021252E0,3.932476342E-1,-6.463746071E0,9.855731010E0
1.274019689E0,2.926911712E-1,-6.439804077E0,9.917980194E0
1.276018127E0,6.135141850E-1,-6.028001308E0,1.023880386E1
1.278016564E0,8.146271110E-1,-4.888361454E0,8.864531517E0
1.280015002E0,5.081692934E-1,-4.275445461E0,9.443928719E0
1.282013439E0,-9.995792061E-2,-4.969764233E0,1.002811337E1
1.284011877E0,2.454056777E-2,-5.817311764E0,1.083256531E1
1.286010314E0,4.267664552E-1,-4.864419460E0,1.033936024E1
1.288008752E0,4.698620737E-1,-3.681683779E0,8.414422035E0
1.290007189E0,2.400187254E-1,-3.791816950E0,1.022443867E1
1.292005627E0,9.157821536E-2,-3.992929935E0,9.525331497E0
1.294004116E0,-1.047463268E-1,-4.093486309E0,1.004726696E1
1.296002658E0,3.022679687E-1,-4.059967518E0,9.415198326E0
1.298001252E0,3.070563674E-1,-3.887584925E0,9.458293915E0
1.299999950E0,6.284779310E-2,-4.031237125E0,1.095706367E1
1.301998752E0,-1.855506375E-2,-3.614645958E0,9.803058624E0
1.303997658E0,-2.579752207E-1,-3.542819977E0,8.553285599E0
1.305996616E0,-7.368155718E-1,-4.146158695E0,9.736021042E0
1.307995627E0,-1.000177741E0,-4.390367508E0,9.731232643E0
1.309994689E0,-1.344942808E0,-5.199607372E0,9.855731010E0
1.311993752E0,-1.603516579E0,-5.194818974E0,1.011430550E1
1.313992814E0,-1.747168660E0,-4.912303448E0,8.907627106E0
1.315991877E0,-1.938704848E0,-4.902726650E0,8.634688377E0
1.317990939E0,-1.909974456E0,-5.688024521E0,1.011430550E1
1.319990002E0,-1.890820742E0,-5.846042156E0,1.042555141E1
1.321989064E0,-2.034472942E0,-5.151723385E0,9.831789017E0
1.323987971E0,-2.067991734E0,-4.371213913E0,9.209297180E0
1.325986616E0,-2.120664120E0,-3.868431330E0,9.611522675E0
1.327985262E0,-2.154182911E0,-3.485359192E0,1.001374817E1
1.329983908E0,-1.866878748E0,-3.490147591E0,9.894038200E0
1.331982554E0,-1.718438268E0,-3.796605349E0,1.007599831E1
1.333981200E0,-1.775899053E0,-3.672106743E0,9.568427086E0
1.335979846E0,-1.723226666E0,-3.753509760E0,9.822212219E0
1.337978543E0,-1.569997787E0,-3.758298159E0,9.980229378E0
1.339977293E0,-1.392826796E0,-3.638587952E0,9.841365814E0
1.341976096E0,-1.239597917E0,-3.485359192E0,9.788693428E0
1.343974950E0,-1.076792240E0,-3.399167776E0,9.764751434E0
1.345973856E0,-8.373720646E-1,-3.198055029E0,9.879673004E0
1.347972814E0,-5.500678420E-1,-2.977788448E0,9.726444244E0
1.349971825E0,-2.675520480E-1,-2.704849482E0,9.764751434E0
1.351970835E0,3.411737457E-2,-8.038532138E-1,9.779116631E0
1.353969846E0,2.160767019E-1,8.481459618E-1,9.932345390E0
1.355968856E0,2.352303118E-1,3.890577704E-2,9.654618263E0
1.357967398E0,3.022679687E-1,2.831143439E-1,9.606734276E0
1.359965939E0,3.788824081E-1,1.969230920E-1,9.716867447E0
1.361964481E0,3.836708367E-1,1.011550203E-1,9.755174637E0
1.363963023E0,3.214215636E-1,2.454056777E-2,9.731232643E0
1.365961564E0,2.735375464E-1,-1.430535465E-1,9.582792282E0
1.367960106E0,3.740940094E-1,-1.526303589E-1,9.668983459E0
1.369958648E0,4.842272997E-1,-8.080431074E-2,9.745597839E0
1.371957189E0,3.932476342E-1,-1.855506375E-2,1.009515190E1
1.373955731E0,4.650736749E-1,-4.016273320E-1,9.343372345E0
1.375954273E0,4.890156984E-1,-2.531868219E-1,9.630676270E0
1.377952814E0,5.177460909E-1,8.200141042E-2,9.625887871E0
1.379951356E0,4.219780564E-1,2.495955229E-1,9.822212219E0
1.381949898E0,2.735375464E-1,2.495955229E-1,9.860519409E0
1.383948439E0,6.284779310E-2,6.763619930E-2,9.817423820E0
1.385946981E0,-3.770867735E-2,-1.334767491E-1,9.822212219E0
1.387945575E0,-1.334767491E-1,-1.765723825E-1,9.831789017E0
1.389944221E0,-1.717839688E-1,-2.148796022E-1,9.913191795E0
1.391942918E0,-2.292448133E-1,-1.526303589E-1,9.827000618E0
1.393941668E0,-2.483984232E-1,-9.995792061E-2,9.716867447E0
1.395940471E0,-3.298012912E-1,-2.334346622E-2,9.740809441E0
1.397939273E0,-3.681085110E-1,5.805939063E-2,9.908403397E0
1.399938075E0,-3.824737072E-1,9.636662155E-2,9.783905029E0
1.401936877E0,-4.207809567E-1,1.681926697E-1,9.726444244E0
1.403935679E0,-4.303577542E-1,2.112883031E-1,9.788693428E0
1.405934481E0,-3.585317135E-1,1.203086376E-1,9.731232643E0
1.407933283E0,-2.531868219E-1,-4.189853091E-3,9.688137054E0
1.409932085E0,-2.723404467E-1,1.017535757E-2,9.645041466E0
1.411930887E0,-2.436100245E-1,1.442506462E-1,9.726444244E0
1.413929481E0,-1.574187577E-1,3.022679687E-1,9.668983459E0
1.415928075E0,-9.038111567E-2,3.980360329E-1,9.616311073E0
1.417926668E0,-4.249707982E-2,4.363432527E-1,9.597157478E0
1.419925262E0,2.454056777E-2,4.219780564E-1,9.645041466E0
1.421923856E0,1.346738487E-1,3.693056107E-1,9.625887871E0
1.423922450E0,1.825578809E-1,4.028244317E-1,9.673771858E0
1.425921043E0,2.208651006E-1,4.554968774E-1,9.726444244E0
1.427919637E0,2.304419130E-1,5.560533404E-1,9.707290649E0
1.429918127E0,2.352303118E-1,6.661866307E-1,9.707290649E0
1.431916616E0,2.208651006E-1,7.332242727E-1,9.702502251E0
1.433915054E0,2.256535143E-1,7.380126715E-1,9.750386238E0
1.435913439E0,1.634042710E-1,7.858967185E-1,9.788693428E0
1.437911825E0,1.155202314E-1,7.858967185E-1,9.783905029E0
1.439910158E0,8.678980917E-2,7.092822790E-1,9.736021042E0
1.441908491E0,6.284779310E-2,8.194155097E-1,9.779116631E0
1.443906825E0,5.985504249E-4,7.954735160E-1,9.755174637E0
1.445905158E0,-7.122749835E-2,7.380126715E-1,9.726444244E0
1.447903491E0,-1.143231317E-1,7.332242727E-1,9.712079048E0
1.449901877E0,-1.526303589E-1,7.428010702E-1,9.731232643E0
1.451900314E0,-1.717839688E-1,6.709750295E-1,9.721655846E0
1.453898804E0,-1.861491799E-1,6.039373875E-1,9.659406662E0
1.455897346E0,-1.765723825E-1,5.512649417E-1,9.668983459E0
1.457895939E0,-1.861491799E-1,5.560533404E-1,9.673771858E0
1.459894585E0,-2.148796022E-1,5.512649417E-1,9.645041466E0
1.461893283E0,-1.957259923E-1,5.608417392E-1,9.645041466E0
1.463892033E0,-2.148796022E-1,5.991489887E-1,9.678560257E0
1.465890835E0,-1.861491799E-1,5.704185367E-1,9.654618263E0
1.467889689E0,-1.430535465E-1,5.752069354E-1,9.645041466E0
1.469888543E0,-1.047463268E-1,5.608417392E-1,9.688137054E0
1.471887398E0,-3.770867735E-2,5.081692934E-1,9.707290649E0
1.473886200E0,1.496376097E-2,4.938040972E-1,9.692925453E0
1.475884637E0,3.890577704E-2,4.459200799E-1,9.692925453E0
1.477882971E0,1.011550203E-1,4.171896577E-1,9.740809441E0
1.479881252E0,1.394622475E-1,3.549404144E-1,9.755174637E0
1.481879533E0,1.490390599E-1,3.405751884E-1,9.774328232E0
1.483877814E0,1.538274586E-1,2.926911712E-1,9.769539833E0
1.485876096E0,1.394622475E-1,2.783259451E-1,9.788693428E0
1.487874377E0,1.346738487E-1,2.400187254E-1,9.783905029E0
1.489872658E0,9.157821536E-2,2.160767019E-1,9.759963036E0
1.491870939E0,5.327098817E-2,1.825578809E-1,9.750386238E0
1.493869273E0,5.985504249E-4,1.538274586E-1,9.745597839E0
1.495867658E0,-5.207388848E-2,1.298854351E-1,9.726444244E0
1.497866096E0,-1.095347255E-1,8.678980917E-2,9.736021042E0
1.499864585E0,-1.669955701E-1,7.242459804E-2,9.731232643E0
1.501863179E0,-2.100912035E-1,5.327098817E-2,9.712079048E0
1.503861877E0,-2.531868219E-1,3.411737457E-2,9.745597839E0
1.505860679E0,-2.962824702E-1,1.017535757E-2,9.726444244E0
1.507859533E0,-3.106476665E-1,5.985504249E-4,9.750386238E0
1.509858491E0,-3.202244639E-1,-1.376665942E-2,9.736021042E0
1.511857502E0,-3.154360652E-1,1.017535757E-2,9.726444244E0
1.513856564E0,-2.914940715E-1,-2.334346622E-2,9.721655846E0
1.515855679E0,-2.579752207E-1,-8.978256024E-3,9.726444244E0
1.517854846E0,-1.765723825E-1,-3.292027488E-2,9.721655846E0
1.519854012E0,-1.143231317E-1,-2.813187055E-2,9.731232643E0
1.521853179E0,-1.191115379E-1,2.932897024E-2,9.750386238E0
1.523852346E0,-1.286883354E-1,9.636662155E-2,9.750386238E0
1.525851512E0,-8.080431074E-2,1.155202314E-1,9.769539833E0
1.527850679E0,5.386953708E-3,1.155202314E-1,9.755174637E0
1.529849793E0,7.242459804E-2,1.394622475E-1,9.803058624E0
1.531848596E0,1.250970364E-1,1.538274586E-1,9.807847023E0
1.533847398E0,1.825578809E-1,1.634042710E-1,9.803058624E0
