"Time (s)","Acceleration x (m/s^2)","Acceleration y (m/s^2)","Acceleration z (m/s^2)"
1.974522400E-2,3.166331649E-1,9.965864420E-1,9.927556992E0
2.174392200E-2,3.214215636E-1,1.006163239E0,9.965864182E0
2.374262000E-2,4.554968774E-1,1.269525409E0,9.975440979E0
2.574116100E-2,4.938040972E-1,1.643020868E0,9.865307808E0
2.773970300E-2,3.740940094E-1,1.671751380E0,9.932345390E0
2.973824500E-2,3.309983909E-1,1.734000564E0,9.975440979E0
3.173678600E-2,4.028244317E-1,1.863287449E0,1.007120991E1
3.373532800E-2,3.453635871E-1,1.944690347E0,9.985017776E0
3.573387000E-2,3.070563674E-1,2.021304846E0,1.010472870E1
3.773241100E-2,2.879027426E-1,2.088342428E0,1.025316906E1
3.973095300E-2,2.448071241E-1,2.121861219E0,1.032020664E1
4.172949500E-2,2.160767019E-1,2.198475599E0,1.051174259E1
4.372803600E-2,1.777694821E-1,2.265513420E0,1.066975975E1
4.572663000E-2,1.394622475E-1,2.313397408E0,1.081820011E1
4.772527600E-2,1.250970364E-1,2.457049608E0,1.086608410E1
4.972397400E-2,8.678980917E-2,2.509721994E0,1.087566090E1
5.172272400E-2,6.284779310E-2,2.600701571E0,1.089002609E1
5.372152600E-2,5.805939063E-2,2.710834980E0,1.084214211E1
5.572032800E-2,1.496376097E-2,2.763507366E0,1.077031612E1
5.771913000E-2,4.848258570E-2,2.811391354E0,1.072722054E1
5.971793200E-2,3.890577704E-2,2.868852139E0,1.069849014E1
6.171673400E-2,3.411737457E-2,2.878428936E0,1.066497135E1
6.371553600E-2,1.496376097E-2,2.840121746E0,1.063624096E1
6.571433800E-2,5.805939063E-2,2.864063740E0,1.051653099E1
6.771314000E-2,1.298854351E-1,2.911947727E0,1.029626465E1
6.971194200E-2,1.921346933E-1,2.964620352E0,1.001853657E1
7.171074500E-2,2.448071241E-1,2.940678120E0,9.999382973E0
7.370954700E-2,2.735375464E-1,2.787449360E0,1.034893703E1
7.570814000E-2,2.974795699E-1,2.591124773E0,1.062187576E1
7.770673400E-2,2.783259451E-1,2.552817583E0,1.046864700E1
7.970532800E-2,3.118447661E-1,2.729988575E0,9.827000618E0
8.170392200E-2,3.022679687E-1,2.811391354E0,9.333795547E0
8.370251500E-2,2.783259451E-1,2.624643564E0,9.788693428E0
8.570110900E-2,2.974795699E-1,2.514510393E0,1.004726696E1
8.769970300E-2,3.453635871E-1,2.490568399E0,9.759963036E0
8.969829700E-2,3.693056107E-1,2.495356798E0,9.271546364E0
9.169689000E-2,3.932476342E-1,2.356492996E0,9.185355186E0
9.369548400E-2,3.884592354E-1,2.241571426E0,9.343372345E0
9.569407800E-2,3.980360329E-1,2.011728048E0,9.803058624E0
9.769272400E-2,4.698620737E-1,1.978209138E0,9.578003883E0
9.969137000E-2,4.698620737E-1,2.150591612E0,8.926780701E0
1.016900150E-1,4.411316514E-1,2.227206230E0,8.668207169E0
1.036887130E-1,4.698620737E-1,2.308609009E0,8.763975143E0
1.056874110E-1,5.033808947E-1,2.222417831E0,9.041702271E0
1.076861090E-1,5.416881442E-1,2.141014814E0,9.070432663E0
1.096848070E-1,5.033808947E-1,2.141014814E0,9.156624794E0
1.116835050E-1,5.129576921E-1,2.073977232E0,9.352949142E0
1.136822030E-1,5.752069354E-1,2.054823637E0,9.247604370E0
1.156809010E-1,5.321113467E-1,2.073977232E0,9.080010414E0
1.176795990E-1,5.464765429E-1,2.126649618E0,9.036913872E0
1.196782970E-1,5.560533404E-1,2.030881643E0,9.147047997E0
1.216769950E-1,4.985924959E-1,1.681328177E0,1.003290176E1
1.236756920E-1,4.698620737E-1,1.820191860E0,9.271546364E0
1.256743900E-1,4.171896577E-1,2.045246840E0,8.419210434E0
1.276730880E-1,3.262099922E-1,2.083554029E0,8.567650795E0
1.296717860E-1,2.400187254E-1,1.949478745E0,9.017760277E0
1.316704840E-1,2.064998895E-1,1.695693374E0,9.769539833E0
1.336691820E-1,2.831143439E-1,1.652597666E0,9.827000618E0
1.356678800E-1,2.735375464E-1,1.824980259E0,9.300276756E0
1.376665780E-1,2.879027426E-1,1.959055543E0,9.084798813E0
1.396652760E-1,2.112883031E-1,1.834557056E0,9.712079048E0
1.416639740E-1,2.304419130E-1,2.059612036E0,9.568427086E0
1.436626720E-1,2.400187254E-1,2.332551003E0,8.002618790E0
1.456613700E-1,2.208651006E-1,2.107496023E0,8.826224327E0
1.476600670E-1,2.064998895E-1,1.652597666E0,1.021007347E1
1.496587650E-1,2.687491477E-1,1.968632340E0,9.745597839E0
1.516574630E-1,1.634042710E-1,2.275090218E0,9.142259598E0
1.536561610E-1,1.394622475E-1,2.605489969E0,9.166201591E0
1.556549110E-1,1.873462796E-1,2.729988575E0,9.472659111E0
1.576536610E-1,1.634042710E-1,2.964620352E0,9.434351921E0
1.596524110E-1,2.112883031E-1,3.031657934E0,9.731232643E0
1.616511610E-1,2.352303118E-1,2.888005733E0,1.026753426E1
1.636499110E-1,1.634042710E-1,2.763507366E0,1.070806694E1
1.656486610E-1,1.059434265E-1,3.247136116E0,9.611522675E0
1.676474110E-1,1.394622475E-1,3.702034473E0,9.123106003E0
1.696461610E-1,1.203086376E-1,3.692457676E0,9.659406662E0
1.716449110E-1,1.107318252E-1,3.711611271E0,9.874884605E0
1.736436610E-1,1.490390599E-1,3.663727045E0,1.029147625E1
1.756424110E-1,5.327098817E-2,3.860051632E0,9.463082314E0
1.776411610E-1,-7.122749835E-2,3.826532841E0,9.386467934E0
1.796399110E-1,-9.516951442E-2,3.572747469E0,9.980229378E0
1.816386610E-1,-7.601590455E-2,3.572747469E0,9.520543098E0
1.836374110E-1,-1.047463268E-1,3.433883905E0,9.606734276E0
1.856361610E-1,-1.095347255E-1,3.232770920E0,1.023880386E1
1.876349630E-1,-1.143231317E-1,3.309385300E0,9.750386238E0
1.896337650E-1,-2.196680009E-1,3.692457676E0,8.826224327E0
1.916325670E-1,-1.861491799E-1,3.524863482E0,9.008183479E0
1.936313700E-1,-1.622071713E-1,3.055599928E0,9.386467934E0
1.956301720E-1,-1.813607812E-1,2.624643564E0,9.812635422E0
1.976289740E-1,-2.100912035E-1,2.413953781E0,9.798270226E0
1.996277760E-1,-1.909375787E-1,2.255936623E0,9.712079048E0
2.016265780E-1,-1.717839688E-1,2.073977232E0,9.793481827E0
2.036253800E-1,-2.005143911E-1,2.342127800E0,8.735244751E0
2.056241820E-1,-2.100912035E-1,2.351704597E0,9.008183479E0
2.076229840E-1,-2.196680009E-1,2.480991602E0,8.663418770E0
2.096217860E-1,-1.669955701E-1,2.423530579E0,9.161413193E0
2.116205880E-1,-1.382651478E-1,2.097919226E0,9.917980194E0
2.136191820E-1,-1.765723825E-1,2.131438017E0,9.759963036E0
2.156176200E-1,-2.292448133E-1,2.672527552E0,8.275558472E0
2.176160570E-1,-2.867056429E-1,2.639008760E0,8.941145897E0
2.196144950E-1,-2.005143911E-1,2.428318977E0,9.673771858E0
2.216129320E-1,-2.675520480E-1,2.399588585E0,9.539696693E0
2.236113700E-1,-3.250128925E-1,2.217629433E0,9.759963036E0
2.256098070E-1,-3.633201122E-1,2.126649618E0,9.917980194E0
2.276082450E-1,-3.872621357E-1,2.083554029E0,9.649829865E0
2.296066820E-1,-4.542997777E-1,2.270301819E0,9.051279068E0
2.316051200E-1,-5.500678420E-1,2.571971178E0,8.385691643E0
2.336036090E-1,-4.159925580E-1,2.260725021E0,9.625887871E0
2.356021510E-1,-3.920505345E-1,2.059612036E0,1.012388229E1
2.376007450E-1,-4.207809567E-1,2.184110403E0,9.654618263E0
2.395993380E-1,-4.830302000E-1,2.466626406E0,9.228450775E0
2.415979320E-1,-5.021837950E-1,2.423530579E0,9.812635422E0
2.435965260E-1,-5.740098357E-1,2.653373957E0,9.295488358E0
2.455951200E-1,-5.835866928E-1,2.763507366E0,9.688137054E0
2.475937130E-1,-6.410474777E-1,2.859275341E0,9.668983459E0
2.495923070E-1,-7.655459642E-1,2.830544949E0,9.894038200E0
2.515909010E-1,-8.134300113E-1,2.753930569E0,1.032020664E1
2.535894950E-1,-8.565256596E-1,2.753930569E0,1.023880386E1
2.555881400E-1,-9.044097066E-1,2.739565372E0,1.029626465E1
2.575868380E-1,-1.072003841E0,2.921524525E0,9.692925453E0
2.595855880E-1,-1.153406620E0,2.964620352E0,1.003769016E1
2.615843380E-1,-1.225232720E0,2.892794132E0,1.010951710E1
2.635830880E-1,-1.230021119E0,2.931101322E0,1.018134308E1
2.655818380E-1,-1.330577612E0,3.366846085E0,9.252392769E0
2.675805880E-1,-1.335366011E0,3.515286684E0,9.352949142E0
2.695793380E-1,-1.244386315E0,3.304596901E0,1.026753426E1
2.715780880E-1,-1.139041424E0,3.069965124E0,1.091396809E1
2.735768380E-1,-1.158195019E0,3.113060713E0,1.050695419E1
2.755755880E-1,-1.167771935E0,3.256712914E0,9.860519409E0
2.775743380E-1,-1.186925530E0,3.232770920E0,9.788693428E0
2.795730880E-1,-1.206079125E0,3.251924515E0,9.793481827E0
2.815713700E-1,-1.134253025E0,3.098695517E0,1.015740108E1
2.835696510E-1,-1.072003841E0,2.926312923E0,1.043033981E1
2.855679320E-1,-1.110311031E0,2.902370930E0,9.994594574E0
2.875661090E-1,-1.182137132E0,3.041234732E0,8.941145897E0
2.895642860E-1,-1.115099430E0,2.931101322E0,9.716867447E0
2.915624630E-1,-1.086369038E0,2.672527552E0,1.003290176E1
2.935606400E-1,-1.105522633E0,3.084330320E0,9.261969566E0
2.955588170E-1,-1.095945835E0,3.098695517E0,9.520543098E0
2.975569950E-1,-1.009754539E0,2.811391354E0,1.044470501E1
2.995551720E-1,-1.004966140E0,2.682104349E0,1.000417137E1
3.015533490E-1,-1.052850246E0,2.643797159E0,1.006642151E1
3.035515260E-1,-1.158195019E0,2.955043554E0,9.247604370E0
3.055497550E-1,-1.191713929E0,3.141791105E0,9.190143585E0
3.075480360E-1,-1.153406620E0,2.983773947E0,9.941922188E0
3.095463170E-1,-1.110311031E0,2.787449360E0,1.040160942E1
3.115445990E-1,-1.028908134E0,2.605489969E0,1.066018295E1
3.135428800E-1,-1.038484931E0,2.672527552E0,1.020049667E1
3.155411610E-1,-1.024119735E0,2.667739153E0,9.999382973E0
3.175394420E-1,-9.522937536E-1,2.595913172E0,1.008557510E1
3.195377240E-1,-9.427168965E-1,2.591124773E0,1.017655468E1
3.215358490E-1,-9.810241461E-1,2.643797159E0,9.980229378E0
3.235339740E-1,-9.666589499E-1,2.840121746E0,9.324218750E0
3.255320990E-1,-8.996213078E-1,3.055599928E0,9.185355186E0
3.275302240E-1,-7.846996188E-1,3.036446333E0,9.755174637E0
3.295283490E-1,-6.745663285E-1,2.931101322E0,1.013345909E1
3.315264740E-1,-5.596446395E-1,2.888005733E0,1.043033981E1
3.335245990E-1,-6.123170853E-1,2.964620352E0,9.769539833E0
3.355227240E-1,-5.979518890E-1,2.921524525E0,1.014782429E1
3.375208490E-1,-5.740098357E-1,2.988562346E0,1.028189945E1
3.395190260E-1,-5.357026458E-1,3.184886694E0,1.002811337E1
3.415172550E-1,-6.123170853E-1,3.271078110E0,9.692925453E0
3.435155360E-1,-6.458359361E-1,3.467402697E0,8.213309288E0
3.455138700E-1,-6.314706802E-1,3.500921488E0,8.500613213E0
3.475122550E-1,-6.793547273E-1,3.247136116E0,1.104325581E1
3.495106920E-1,-3.681085110E-1,2.763507366E0,1.169447803E1
3.515091300E-1,-4.351461530E-1,2.935889721E0,1.050695419E1
3.535075670E-1,-6.841431260E-1,3.251924515E0,9.147047997E0
3.555060050E-1,-7.176619768E-1,3.323750496E0,9.156624794E0
3.575044420E-1,-7.032967210E-1,3.132214308E0,9.094375610E0
3.595028800E-1,-6.458359361E-1,2.849698544E0,1.027232265E1
3.615013170E-1,-5.835866928E-1,2.773084164E0,1.043991661E1
3.634997550E-1,-6.218938828E-1,2.624643564E0,1.064102936E1
3.654981920E-1,-5.548562407E-1,2.720411777E0,1.001853657E1
3.674966820E-1,-6.218938828E-1,2.677315950E0,9.410409927E0
3.694952240E-1,-7.032967210E-1,2.385223389E0,9.668983459E0
3.714938170E-1,-6.889315248E-1,2.131438017E0,9.501389503E0
3.734924110E-1,-7.272387743E-1,2.222417831E0,9.889249802E0
3.754910050E-1,-6.841431260E-1,2.533663988E0,9.396044731E0
3.774895990E-1,-6.171054840E-1,2.552817583E0,9.396044731E0
3.794881920E-1,-5.261258483E-1,2.567182779E0,9.736021042E0
3.814867860E-1,-4.830302000E-1,2.696469545E0,9.874884605E0
3.834853800E-1,-4.542997777E-1,2.964620352E0,9.194931984E0
3.854839740E-1,-3.345896900E-1,2.907159328E0,9.496601105E0
3.874825150E-1,-2.627636492E-1,2.797026157E0,9.917980194E0
3.894808490E-1,-2.196680009E-1,2.571971178E0,1.028189945E1
3.914790780E-1,-2.914940715E-1,2.634220362E0,1.069370174E1
3.934773070E-1,-2.483984232E-1,2.773084164E0,9.779116631E0
3.954755360E-1,-3.058592677E-1,2.950255156E0,9.831789017E0
3.974737650E-1,-2.244564146E-1,3.170521498E0,9.333795547E0
3.994719950E-1,-1.813607812E-1,3.232770920E0,9.348160744E0
4.014702240E-1,-1.478419602E-1,3.314173698E0,9.266757965E0
4.034684530E-1,-1.286883354E-1,3.266289711E0,9.731232643E0
4.054666820E-1,-1.334767491E-1,3.247136116E0,9.999382973E0
4.074649110E-1,-5.686229095E-2,3.146579504E0,1.015740108E1
4.094631400E-1,-6.643909961E-2,3.357269287E0,9.333795547E0
4.114613700E-1,-2.813187055E-2,3.572747469E0,7.935581684E0
4.134595990E-1,-3.968389332E-1,3.433883905E0,8.730456352E0
4.154577760E-1,-2.340332121E-1,3.175309896E0,9.884461403E0
4.174559530E-1,-1.238999367E-1,2.797026157E0,1.146463490E1
4.194539220E-1,1.496376097E-2,2.533663988E0,1.128746414E1
4.214518900E-1,-3.770867735E-2,2.667739153E0,1.035372543E1
4.234498590E-1,-1.669955701E-1,2.955043554E0,9.419986725E0
4.254478280E-1,-2.005143911E-1,2.978985548E0,9.218873978E0
4.274457970E-1,-1.957259923E-1,2.897582531E0,9.539696693E0
4.294438170E-1,-1.095347255E-1,2.787449360E0,9.683348656E0
4.314418900E-1,1.975216344E-2,2.576759577E0,1.042076302E1
4.334400150E-1,-4.189853091E-3,2.385223389E0,1.107198620E1
4.354381920E-1,4.848258570E-2,2.346916199E0,1.061708736E1
4.374364740E-1,-2.813187055E-2,2.447472572E0,9.214085579E0
4.394348590E-1,-6.165069342E-2,2.409165382E0,9.113529205E0
4.414332970E-1,9.636662155E-2,2.404376984E0,9.563638687E0
4.434317860E-1,2.112883031E-1,2.442684174E0,9.731232643E0
4.454303280E-1,1.155202314E-1,2.457049608E0,9.491812706E0
4.474289220E-1,2.112883031E-1,2.337339401E0,9.463082314E0
4.494275670E-1,2.926911712E-1,2.275090218E0,9.419986725E0
4.514262130E-1,4.171896577E-1,2.117072821E0,9.688137054E0
4.534248590E-1,5.273229480E-1,2.006939650E0,9.879673004E0
4.554235050E-1,5.177460909E-1,2.145803213E0,9.606734276E0
4.574220470E-1,5.799953341E-1,2.160168409E0,9.166201591E0
4.594202240E-1,6.374561787E-1,2.150591612E0,8.898050308E0
4.614182970E-1,6.374561787E-1,2.327762604E0,9.640253067E0
4.634163700E-1,6.997054219E-1,2.327762604E0,1.023401546E1
4.654144420E-1,8.194155097E-1,2.188898802E0,1.013345909E1
4.674125150E-1,8.672995567E-1,2.164956808E0,9.999382973E0
4.694105880E-1,8.768763542E-1,1.801038265E0,1.018134308E1
4.714086610E-1,7.954735160E-1,1.815403461E0,1.032499504E1
4.734067340E-1,8.864531517E-1,1.777096152E0,1.018613148E1
4.754047550E-1,7.475894690E-1,2.035670042E0,1.010472870E1
4.774027760E-1,6.230909824E-1,2.255936623E0,9.731232643E0
4.794007970E-1,5.608417392E-1,2.313397408E0,9.242815971E0
4.813988170E-1,5.560533404E-1,2.303820610E0,9.041702271E0
4.833968380E-1,5.608417392E-1,2.184110403E0,9.247604370E0
4.853948590E-1,4.602852762E-1,2.107496023E0,9.927556992E0
4.873928800E-1,5.464765429E-1,1.997362733E0,1.044949341E1
4.893909010E-1,4.746504724E-1,1.978209138E0,1.036809063E1
4.913889220E-1,3.980360329E-1,1.815403461E0,9.750386238E0
4.933869420E-1,4.363432527E-1,1.834557056E0,1.021965027E1
4.953849630E-1,4.650736749E-1,1.848922253E0,1.026753426E1
4.973829840E-1,4.028244317E-1,2.054823637E0,9.822212219E0
4.993810570E-1,2.783259451E-1,2.208052635E0,8.672995567E0
5.013791300E-1,3.740940094E-1,2.083554029E0,8.529343605E0
5.033772550E-1,3.693056107E-1,1.767519355E0,8.893261909E0
5.053754320E-1,4.985924959E-1,1.571194887E0,9.865307808E0
5.073736610E-1,7.092822790E-1,1.528099179E0,1.020528507E1
5.093719420E-1,8.768763542E-1,1.604713678E0,1.023401546E1
5.113702240E-1,8.625111580E-1,1.638232470E0,9.582792282E0
5.133685050E-1,8.098387122E-1,1.614290476E0,1.008078671E1
5.153667860E-1,7.284358740E-1,1.336563110E0,9.261969566E0
5.173650670E-1,8.337807655E-1,1.504157186E0,1.137844372E1
5.193633490E-1,7.428010702E-1,2.006939650E0,8.333019257E0
5.213616300E-1,8.242039084E-1,1.992574334E0,1.027711105E1
5.233599110E-1,7.332242727E-1,1.944690347E0,9.410409927E0
5.253581920E-1,8.050503135E-1,1.700481772E0,9.946710587E0
5.273564740E-1,6.901286244E-1,1.609502077E0,9.736021042E0
5.293547030E-1,7.619546652E-1,1.542464495E0,1.004247856E1
5.313527240E-1,7.523778677E-1,1.480215192E0,1.059793377E1
5.333507450E-1,7.380126715E-1,1.523310781E0,1.028189945E1
5.353487650E-1,6.997054219E-1,1.552041292E0,9.525331497E0
5.373467860E-1,6.805518270E-1,2.050035238E0,8.663418770E0
5.393448070E-1,5.608417392E-1,1.978209138E0,8.706514359E0
5.413428280E-1,6.087257862E-1,1.901594758E0,9.367314339E0
5.433408490E-1,7.284358740E-1,1.710058570E0,9.132682800E0
5.453388700E-1,6.805518270E-1,1.561618090E0,9.472659111E0
5.473368900E-1,6.661866307E-1,1.283890605E0,9.683348656E0
5.493349630E-1,7.954735160E-1,8.912416101E-1,1.091396809E1
5.513330880E-1,6.949170232E-1,7.236474752E-1,1.146942329E1
5.533312650E-1,6.518214345E-1,8.433575630E-1,1.065539455E1
5.553294950E-1,5.560533404E-1,1.077989340E0,1.005684471E1
5.573277760E-1,4.028244317E-1,1.274313807E0,9.285911560E0
5.593261090E-1,3.549404144E-1,1.384447098E0,9.012971878E0
5.613244420E-1,3.836708367E-1,1.202487826E0,9.769539833E0
5.633227760E-1,4.171896577E-1,1.116296530E0,1.010951710E1
5.653211090E-1,3.836708367E-1,1.259948611E0,9.736021042E0
5.673194420E-1,4.124012291E-1,1.245583415E0,9.108740807E0
5.693177760E-1,3.693056107E-1,1.130661726E0,8.965087891E0
5.713158490E-1,3.501519859E-1,8.960300088E-1,1.002811337E1
5.733139220E-1,3.932476342E-1,9.199720025E-1,9.937133789E0
5.753119950E-1,5.225345492E-1,7.811083198E-1,1.028668785E1
5.773100670E-1,5.177460909E-1,8.912416101E-1,1.063624096E1
5.793081400E-1,5.225345492E-1,1.149815321E0,9.769539833E0
5.813062650E-1,5.273229480E-1,1.231218219E0,9.539696693E0
5.833044420E-1,5.895721912E-1,1.298255920E0,8.955511093E0
5.853026720E-1,4.219780564E-1,1.269525409E0,8.893261909E0
5.873009530E-1,4.411316514E-1,1.130661726E0,8.615534782E0
5.892992340E-1,5.847837925E-1,9.917980433E-1,9.841365814E0
5.912975150E-1,7.428010702E-1,8.098387122E-1,1.047343540E1
5.932957970E-1,7.954735160E-1,8.242039084E-1,1.114860058E1
5.952940780E-1,7.332242727E-1,8.050503135E-1,1.063145256E1
5.972923590E-1,8.720879555E-1,9.534908533E-1,9.769539833E0
5.992906400E-1,8.194155097E-1,1.130661726E0,9.190143585E0
6.012889220E-1,9.151836038E-1,5.129576921E-1,1.032499504E1
6.032872030E-1,8.672995567E-1,1.729212165E0,8.831012726E0
6.052854840E-1,1.025316834E0,1.748365760E0,8.385691643E0
6.072837650E-1,1.111508131E0,1.676539779E0,9.951498985E0
6.092820470E-1,1.006163239E0,1.700481772E0,9.003395081E0
6.112803280E-1,1.092354536E0,1.408389091E0,9.305065155E0
6.132786090E-1,1.077989340E0,7.380126715E-1,1.014303589E1
6.152768900E-1,1.236006618E0,3.836708367E-1,1.153167248E1
6.172751720E-1,1.188122630E0,7.380126715E-1,1.064581776E1
6.192734530E-1,1.034893632E0,4.124012291E-1,1.005205631E1
6.212717340E-1,1.154603720E0,1.360505104E0,9.496601105E0
6.232700150E-1,1.221641421E0,1.657386184E0,9.204508781E0
6.252682970E-1,1.178545833E0,1.580771685E0,8.457517624E0
6.272665780E-1,1.212064624E0,1.331774712E0,8.682572365E0
6.292648590E-1,1.231218219E0,9.582792521E-1,9.132682800E0
6.312631400E-1,1.145026922E0,6.949170232E-1,9.846154213E0
6.332614220E-1,1.283890605E0,4.985924959E-1,1.048780060E1
6.352597030E-1,1.322197914E0,4.076128304E-1,1.109592819E1
6.372579840E-1,1.288679123E0,4.076128304E-1,1.055483818E1
6.392562650E-1,1.236006618E0,7.044938207E-1,1.030584145E1
6.412545470E-1,1.303044319E0,9.630676508E-1,9.467870712E0
6.432528280E-1,1.250371814E0,1.111508131E0,9.357737541E0
6.452511090E-1,1.255160213E0,1.101931334E0,9.419986725E0
6.472493900E-1,1.322197914E0,1.116296530E0,9.166201591E0
6.492476720E-1,1.135450125E0,1.092354536E0,9.036913872E0
6.512459530E-1,1.145026922E0,8.385691643E-1,9.798270226E0
6.532442340E-1,1.212064624E0,4.746504724E-1,1.048301220E1
6.552425150E-1,1.164180517E0,5.752069354E-1,1.093312168E1
6.572407970E-1,1.149815321E0,8.385691643E-1,9.578003883E0
6.592390780E-1,1.015740037E0,8.194155097E-1,9.850942612E0
6.612373590E-1,9.582792521E-1,9.391255975E-1,9.961075783E0
6.632356400E-1,9.630676508E-1,1.121084929E0,9.635464668E0
6.652339220E-1,9.199720025E-1,1.168969035E0,9.156624794E0
6.672322030E-1,7.523778677E-1,1.097142935E0,8.711302757E0
6.692304840E-1,7.140706778E-1,8.625111580E-1,9.396044731E0
6.712287650E-1,6.997054219E-1,5.512649417E-1,9.908403397E0
6.732270470E-1,5.464765429E-1,5.225345492E-1,1.072243214E1
6.752253280E-1,4.602852762E-1,4.124012291E-1,9.707290649E0
6.772236090E-1,4.554968774E-1,3.693056107E-1,1.080862331E1
6.792218380E-1,3.070563674E-1,4.076128304E-1,9.769539833E0
6.812199630E-1,1.634042710E-1,5.129576921E-1,9.530119896E0
6.832179840E-1,1.298854351E-1,6.039373875E-1,9.343372345E0
6.852160050E-1,9.636662155E-2,6.566098332E-1,9.573215485E0
6.872140260E-1,9.636662155E-2,7.380126715E-1,9.333795547E0
6.892119950E-1,2.017114908E-1,6.470330358E-1,9.578003883E0
6.912099110E-1,2.112883031E-1,5.273229480E-1,1.004726696E1
6.932078280E-1,2.687491477E-1,4.842272997E-1,9.951498985E0
6.952057450E-1,2.495955229E-1,6.470330358E-1,9.673771858E0
6.972036610E-1,3.836708367E-1,1.145026922E0,8.002618790E0
6.992015780E-1,4.411316514E-1,1.049258947E0,8.558073997E0
7.011995470E-1,4.746504724E-1,7.380126715E-1,1.027232265E1
7.031975670E-1,6.518214345E-1,5.081692934E-1,1.049737740E1
7.051956400E-1,6.278793812E-1,4.459200799E-1,1.065060616E1
7.071937650E-1,6.613982320E-1,5.081692934E-1,1.042076302E1
7.091919420E-1,7.906851172E-1,5.704185367E-1,9.980229378E0
7.111901720E-1,8.337807655E-1,4.842272997E-1,9.640253067E0
7.131884530E-1,8.577227592E-1,5.464765429E-1,1.018134308E1
7.151867860E-1,7.571662664E-1,7.140706778E-1,9.166201591E0
7.171851720E-1,6.853402257E-1,7.380126715E-1,9.448717117E0
7.191835570E-1,7.858967185E-1,7.811083198E-1,9.874884605E0
7.211819420E-1,7.954735160E-1,8.529343605E-1,1.018134308E1
7.231803280E-1,7.428010702E-1,8.433575630E-1,1.024838066E1
7.251787130E-1,6.757634282E-1,8.194155097E-1,9.994594574E0
7.271770990E-1,6.374561787E-1,8.337807655E-1,9.740809441E0
7.291754840E-1,6.135141850E-1,8.289923668E-1,9.798270226E0
7.311738700E-1,5.273229480E-1,7.954735160E-1,1.018134308E1
7.331722550E-1,4.650736749E-1,6.757634282E-1,9.860519409E0
7.351704840E-1,3.405751884E-1,6.087257862E-1,9.611522675E0
7.371687130E-1,2.639607489E-1,6.087257862E-1,9.391256332E0
7.391669420E-1,3.453635871E-1,6.949170232E-1,9.424775124E0
7.411651720E-1,4.315548539E-1,7.523778677E-1,9.889249802E0
7.431634010E-1,4.267664552E-1,7.523778677E-1,9.578003883E0
7.451615780E-1,3.932476342E-1,7.332242727E-1,9.391256332E0
7.471597550E-1,3.693056107E-1,6.230909824E-1,9.281123161E0
7.491579320E-1,3.549404144E-1,5.799953341E-1,9.673771858E0
7.511561090E-1,3.597288132E-1,6.518214345E-1,9.961075783E0
7.531542860E-1,4.746504724E-1,7.044938207E-1,1.035372543E1
7.551524630E-1,4.602852762E-1,8.050503135E-1,1.003769016E1
7.571506400E-1,5.081692934E-1,8.146271110E-1,9.697713852E0
7.591488700E-1,5.081692934E-1,6.949170232E-1,9.400833130E0
7.611471510E-1,4.076128304E-1,4.698620737E-1,9.343372345E0
7.631454840E-1,6.613982320E-1,4.507084787E-1,9.506177902E0
7.651438700E-1,8.002619147E-1,6.087257862E-1,9.003395081E0
7.671423070E-1,7.188590765E-1,4.267664552E-1,9.108740807E0
7.691407970E-1,9.582792521E-1,2.448071241E-1,1.043991661E1
7.711392860E-1,1.006163239E0,2.352303118E-1,1.063624096E1
7.731377760E-1,9.056068063E-1,2.831143439E-1,1.028189945E1
7.751362650E-1,8.577227592E-1,4.650736749E-1,1.005684471E1
7.771347550E-1,9.103952050E-1,6.183025837E-1,9.410409927E0
7.791332450E-1,9.103952050E-1,8.050503135E-1,9.534908295E0
7.811317340E-1,1.015740037E0,7.284358740E-1,9.668983459E0
7.831302240E-1,9.678560495E-1,5.704185367E-1,9.951498985E0
7.851287130E-1,8.385691643E-1,4.602852762E-1,9.774328232E0
7.871270990E-1,9.008184075E-1,2.974795699E-1,9.850942612E0
7.891254840E-1,9.151836038E-1,3.453635871E-1,9.056067467E0
7.911238700E-1,8.481459618E-1,2.639607489E-1,9.065644264E0
7.931222550E-1,8.337807655E-1,1.155202314E-1,9.649829865E0
7.951206400E-1,6.949170232E-1,1.107318252E-1,1.022443867E1
7.971190260E-1,6.422445774E-1,3.411737457E-2,1.000417137E1
7.991174110E-1,6.518214345E-1,-2.334346622E-2,9.841365814E0
8.011157970E-1,5.081692934E-1,4.369417951E-2,9.434351921E0
8.031141820E-1,5.033808947E-1,6.284779310E-2,9.266757965E0
8.051125670E-1,5.081692934E-1,-5.686229095E-2,9.525331497E0
8.071109530E-1,4.219780564E-1,-1.047463268E-1,9.956287384E0
8.091093900E-1,4.507084787E-1,-7.122749835E-2,9.587580681E0
8.111078800E-1,4.219780564E-1,-1.382651478E-1,9.635464668E0
8.131064220E-1,4.076128304E-1,-2.579752207E-1,1.004247856E1
8.151050150E-1,2.974795699E-1,-3.058592677E-1,1.036330223E1
8.171036610E-1,3.405751884E-1,-2.675520480E-1,1.005205631E1
8.191023590E-1,2.591723204E-1,-3.154360652E-1,9.640253067E0
8.211010570E-1,-8.978256024E-3,-2.675520480E-1,9.563638687E0
8.230997550E-1,8.678980917E-2,-2.627636492E-1,1.023401546E1
8.250984530E-1,-8.978256024E-3,-6.165069342E-2,1.112465858E1
8.270971510E-1,-2.813187055E-2,1.011550203E-1,1.071285534E1
8.290955880E-1,-2.723404467E-1,1.825578809E-1,9.041702271E0
8.310939220E-1,-4.782418013E-1,3.262099922E-1,8.294712067E0
8.330922550E-1,-4.782418013E-1,4.369417951E-2,8.476671219E0
8.350905880E-1,-6.218938828E-1,-1.717839688E-1,9.673771858E0
8.370889220E-1,-6.458359361E-1,-4.016273320E-1,1.055962658E1
8.390872550E-1,-7.559691668E-1,-3.393780887E-1,1.028189945E1
8.410855880E-1,-7.176619768E-1,3.980360329E-1,7.399280548E0
8.430839220E-1,-9.139865041E-1,1.298854351E-1,9.606734276E0
8.450822550E-1,-8.517372608E-1,-8.559270948E-2,1.125394535E1
8.470805880E-1,-9.618705511E-1,3.453635871E-1,9.429563522E0
8.490789220E-1,-1.220444322E0,2.304419130E-1,9.228450775E0
8.510772550E-1,-1.440710902E0,-8.978256024E-3,9.678560257E0
8.530755880E-1,-1.445499301E0,-3.154360652E-1,9.874884605E0
8.550739220E-1,-1.584362984E0,-5.069721937E-1,1.017655468E1
8.570722550E-1,-1.742380261E0,-6.554127336E-1,1.044949341E1
8.590705880E-1,-1.881243944E0,-6.745663285E-1,1.038724422E1
8.610689740E-1,-1.723226666E0,-5.835866928E-1,1.039682102E1
8.630674110E-1,-1.866878748E0,-3.824737072E-1,9.558850288E0
8.650659010E-1,-1.842936754E0,-2.292448133E-1,9.520543098E0
8.670644420E-1,-1.728015065E0,-1.717839688E-1,9.841365814E0
8.690630360E-1,-1.761533856E0,-9.038111567E-2,9.999382973E0
8.710616820E-1,-1.608304977E0,-1.143231317E-1,1.006642151E1
8.730603800E-1,-1.617881775E0,-8.559270948E-2,9.736021042E0
8.750591300E-1,-1.502960086E0,-7.601590455E-2,9.587580681E0
8.770579320E-1,-1.483806491E0,-1.478419602E-1,9.688137054E0
8.790567860E-1,-1.378461599E0,-2.436100245E-1,1.004726696E1
8.810556400E-1,-1.110311031E0,-2.340332121E-1,9.894038200E0
8.830544950E-1,-9.187749028E-1,-2.196680009E-1,9.635464668E0
8.850533490E-1,-6.697779298E-1,-2.436100245E-1,1.059793377E1
8.870522030E-1,-4.399345517E-1,-1.717839688E-1,1.020528507E1
8.890510570E-1,-3.058592677E-1,8.678980917E-2,9.376891136E0
8.910499110E-1,9.157821536E-2,7.721300423E-2,9.228450775E0
8.930487650E-1,1.873462796E-1,7.242459804E-2,9.419986725E0
8.950476200E-1,4.315548539E-1,1.586158574E-1,9.606734276E0
8.970464740E-1,5.943605900E-1,1.681926697E-1,9.870096207E0
8.990451200E-1,7.188590765E-1,1.921346933E-1,1.007120991E1
9.010437650E-1,8.289923668E-1,2.735375464E-1,1.031541824E1
9.030424110E-1,6.183025837E-1,4.171896577E-1,9.922768593E0
9.050410570E-1,7.044938207E-1,4.650736749E-1,9.448717117E0
9.070396510E-1,7.140706778E-1,4.411316514E-1,9.549273491E0
9.090381920E-1,6.661866307E-1,4.267664552E-1,9.736021042E0
9.110366820E-1,6.566098332E-1,3.166331649E-1,1.001853657E1
9.130351720E-1,4.985924959E-1,3.645172119E-1,1.001853657E1
9.150336610E-1,3.070563674E-1,3.549404144E-1,9.242815971E0
9.170319950E-1,2.783259451E-1,2.064998895E-1,9.065644264E0
9.190303280E-1,1.155202314E-1,4.369417951E-2,9.894038200E0
9.210286610E-1,-9.995792061E-2,9.636662155E-2,9.961075783E0
9.230269950E-1,9.157821536E-2,1.975216344E-2,1.017655468E1
9.250253280E-1,-1.526303589E-1,1.975216344E-2,1.022443867E1
9.270236610E-1,-4.734533727E-1,1.017535757E-2,9.372102737E0
9.290219950E-1,-5.261258483E-1,5.386953708E-3,9.214085579E0
9.310203280E-1,-5.404910445E-1,-1.334767491E-1,9.688137054E0
9.330186610E-1,-6.697779298E-1,-8.978256024E-3,9.458293915E0
9.350169950E-1,-5.500678420E-1,-6.643909961E-2,1.017176628E1
9.370153800E-1,-7.751228213E-1,-2.334346622E-2,9.578003883E0
9.390138170E-1,-6.697779298E-1,-6.165069342E-2,9.453505516E0
9.410122550E-1,-4.686649740E-1,-2.100912035E-1,1.041597462E1
9.430106920E-1,-7.320271730E-1,-6.643909961E-2,9.836577415E0
9.450091300E-1,-7.416039705E-1,-5.207388848E-2,9.965864182E0
9.470076200E-1,-7.799112201E-1,1.777694821E-1,9.405621529E0
9.490061090E-1,-7.272387743E-1,3.262099922E-1,9.305065155E0
9.510046510E-1,-6.218938828E-1,2.400187254E-1,9.573215485E0
9.530031920E-1,-7.320271730E-1,3.411737457E-2,1.009515190E1
9.550017340E-1,-7.559691668E-1,-2.148796022E-1,1.028668785E1
9.570002760E-1,-1.067215443E0,-3.058592677E-1,1.020528507E1
9.589988170E-1,-9.570821524E-1,-4.255693555E-1,9.965864182E0
9.609973590E-1,-1.191713929E0,-5.686229095E-2,9.223662376E0
9.629959010E-1,-1.038484931E0,-1.430535465E-1,9.601945877E0
9.649944420E-1,-9.762357473E-1,-2.340332121E-1,1.058835697E1
9.669929840E-1,-8.661024570E-1,-3.106476665E-1,1.056920338E1
9.689915780E-1,-1.043273449E0,-1.669955701E-1,9.745597839E0
9.709902240E-1,-1.249174714E0,1.586158574E-1,8.553285599E0
9.729889220E-1,-1.134253025E0,7.242459804E-2,8.213309288E0
9.749876200E-1,-1.048061848E0,-2.813187055E-2,9.003395081E0
9.769863170E-1,-8.182184100E-1,-4.399345517E-1,1.065060616E1
9.789850150E-1,-6.410474777E-1,-2.723404467E-1,1.138802052E1
9.809837130E-1,-7.416039705E-1,6.763619930E-2,1.006163311E1
9.829824110E-1,-5.069721937E-1,4.848258570E-2,9.601945877E0
9.849810570E-1,-6.554127336E-1,1.011550203E-1,8.989029884E0
9.869795470E-1,-5.931634903E-1,1.634042710E-1,8.524555206E0
9.889780360E-1,-4.590881765E-1,-1.047463268E-1,9.242815971E0
9.909765260E-1,-4.399345517E-1,-2.627636492E-1,1.017176628E1
9.929750150E-1,-3.345896900E-1,-5.117605925E-1,1.104325581E1
9.949735050E-1,-4.303577542E-1,-3.920505345E-1,9.879673004E0
9.969719950E-1,-4.590881765E-1,-2.723404467E-1,9.161413193E0
9.989704840E-1,-2.005143911E-1,-4.728548229E-2,9.103952408E0
1.000968870E0,-4.830302000E-1,3.645172119E-1,8.380903244E0
1.002967047E0,-3.585317135E-1,2.017114908E-1,1.029626465E1
1.004965224E0,-3.776853085E-1,2.932897024E-2,1.045428181E1
1.006963401E0,-3.537433147E-1,-1.334767491E-1,9.563638687E0
1.008961578E0,-2.436100245E-1,-2.962824702E-1,9.692925453E0
1.010959755E0,-2.819172442E-1,-2.388216257E-1,9.817423820E0
1.012957932E0,5.327098817E-2,-5.309142470E-1,1.143590450E1
1.014956109E0,-2.148796022E-1,-4.542997777E-1,1.145984650E1
1.016954286E0,-4.016273320E-1,-1.765723825E-1,9.898826599E0
1.018952463E0,-5.787982345E-1,1.011550203E-1,8.256404877E0
1.020950588E0,-4.542997777E-1,6.284779310E-2,8.744821548E0
1.022948713E0,-5.309142470E-1,7.242459804E-2,8.658630371E0
1.024946838E0,-3.968389332E-1,-1.376665942E-2,9.290699959E0
1.026944963E0,-3.058592677E-1,-3.292027488E-2,1.011430550E1
1.028943088E0,-3.298012912E-1,-3.250128925E-1,1.093791008E1
1.030941213E0,-2.962824702E-1,-4.686649740E-1,1.077989292E1
1.032939338E0,-6.027402878E-1,-1.957259923E-1,9.060855865E0
1.034937515E0,-4.064157307E-1,-3.585317135E-1,9.309853554E0
1.036935745E0,-6.649895310E-1,-2.005143911E-1,9.764751434E0
1.038934026E0,-5.740098357E-1,-2.340332121E-1,1.006163311E1
1.040932359E0,-3.633201122E-1,-2.723404467E-1,1.017176628E1
1.042930745E0,-5.740098357E-1,-1.855506375E-2,9.487024307E0
1.044929182E0,-3.920505345E-1,-8.080431074E-2,9.161413193E0
1.046927672E0,-3.728969097E-1,-2.436100245E-1,9.477447510E0
1.048926161E0,-2.005143911E-1,-4.207809567E-1,1.045428181E1
1.050924651E0,-2.340332121E-1,-4.495113790E-1,1.067454815E1
1.052923140E0,-2.244564146E-1,-3.250128925E-1,9.697713852E0
1.054921630E0,-4.495113790E-1,-2.675520480E-1,9.487024307E0
1.056920120E0,-1.334767491E-1,-3.489548862E-1,9.510966301E0
1.058918609E0,-4.064157307E-1,-1.095347255E-1,9.487024307E0
1.060916942E0,-2.292448133E-1,-2.723404467E-1,9.927556992E0
1.062915120E0,-1.334767491E-1,-2.627636492E-1,9.961075783E0
1.064913297E0,-2.914940715E-1,-4.728548229E-2,9.774328232E0
1.066911317E0,-3.393780887E-1,1.681926697E-1,9.027337074E0
1.068909338E0,-1.382651478E-1,5.327098817E-2,9.396044731E0
1.070907359E0,-8.080431074E-2,-1.574187577E-1,1.037766743E1
1.072905380E0,-1.861491799E-1,-3.872621357E-1,1.065539455E1
1.074903401E0,-1.957259923E-1,-3.345896900E-1,9.860519409E0
1.076901422E0,-4.207809567E-1,-1.574187577E-1,9.578003883E0
1.078899495E0,-3.393780887E-1,-3.345896900E-1,1.000417137E1
1.080897620E0,-3.920505345E-1,-2.771288455E-1,1.024359226E1
1.082895797E0,-4.590881765E-1,-9.516951442E-2,9.865307808E0
1.084894026E0,-4.590881765E-1,-8.978256024E-3,9.913191795E0
1.086892359E0,-6.218938828E-1,6.763619930E-2,1.009994030E1
1.088890797E0,-6.745663285E-1,2.352303118E-1,8.936357498E0
1.090889338E0,-6.075286865E-1,2.208651006E-1,8.184578896E0
1.092887984E0,-5.692214370E-1,-9.995792061E-2,9.142259598E0
1.094886682E0,-6.841431260E-1,-7.122749835E-2,1.003769016E1
1.096885432E0,-6.506243348E-1,1.538274586E-1,9.980229378E0
1.098884234E0,-2.771288455E-1,2.932897024E-2,1.052131939E1
1.100883088E0,-3.920505345E-1,1.490390599E-1,1.026753426E1
1.102881942E0,-5.165489912E-1,1.777694821E-1,9.329007149E0
1.104880797E0,-5.644330382E-1,2.208651006E-1,8.476671219E0
1.106879651E0,-1.478419602E-1,2.932897024E-2,9.640253067E0
1.108878192E0,-1.765723825E-1,1.921346933E-1,1.020049667E1
1.110876630E0,-6.165069342E-2,3.214215636E-1,1.037766743E1
1.112875067E0,1.250970364E-1,1.873462796E-1,1.088523769E1
1.114873505E0,-1.813607812E-1,4.363432527E-1,9.783905029E0
1.116871786E0,-1.574187577E-1,4.602852762E-1,8.888473511E0
1.118869963E0,-8.978256024E-3,3.788824081E-1,8.941145897E0
1.120868036E0,1.346738487E-1,3.788824081E-1,9.994594574E0
1.122866109E0,8.200141042E-2,4.459200799E-1,1.037287903E1
1.124864182E0,8.678980917E-2,7.428010702E-1,9.965864182E0
1.126862255E0,2.926911712E-1,6.183025837E-1,9.836577415E0
1.128860328E0,-7.601590455E-2,6.278793812E-1,9.611522675E0
1.130858401E0,5.805939063E-2,4.363432527E-1,9.204508781E0
1.132856474E0,1.394622475E-1,3.597288132E-1,9.621099472E0
1.134854599E0,2.879027426E-1,7.242459804E-2,1.050216579E1
1.136852776E0,-2.531868219E-1,-2.005143911E-1,1.092833328E1
1.138851005E0,-9.995792061E-2,-6.165069342E-2,9.554061890E0
1.140849286E0,3.453635871E-1,-3.770867735E-2,9.611522675E0
1.142847620E0,5.386953708E-3,3.597288132E-1,9.606734276E0
1.144846005E0,2.448071241E-1,3.166331649E-1,9.683348656E0
1.146844390E0,7.721300423E-2,7.475894690E-1,9.520543098E0
1.148842776E0,3.890577704E-2,8.002619147E-1,9.352949142E0
1.150841161E0,-1.376665942E-2,7.092822790E-1,9.759963036E0
1.152839547E0,-1.191115379E-1,7.811083198E-1,9.903614998E0
1.154837932E0,-4.159925580E-1,9.056068063E-1,9.458293915E0
1.156836317E0,-1.286883354E-1,5.943605900E-1,1.013345909E1
1.158834703E0,-2.340332121E-1,6.039373875E-1,1.022922707E1
1.160833088E0,-3.920505345E-1,6.853402257E-1,1.020528507E1
1.162831474E0,2.932897024E-2,3.884592354E-1,1.049737740E1
1.164829859E0,-2.292448133E-1,6.087257862E-1,1.030584145E1
1.166828088E0,-3.728969097E-1,8.529343605E-1,8.615534782E0
1.168826161E0,-4.878185987E-1,1.969230920E-1,9.381679535E0
1.170824234E0,-2.388216257E-1,4.363432527E-1,9.194931984E0
1.172822307E0,4.848258570E-2,5.273229480E-1,9.309853554E0
1.174820380E0,3.214215636E-1,2.974795699E-1,1.043512821E1
1.176818453E0,2.017114908E-1,1.634042710E-1,1.043991661E1
1.178816526E0,-9.995792061E-2,4.369417951E-2,9.783905029E0
1.180814599E0,-2.388216257E-1,3.411737457E-2,9.075222015E0
1.182812672E0,-4.189853091E-3,-1.622071713E-1,9.927556992E0
1.184810745E0,-2.675520480E-1,1.346738487E-1,9.530119896E0
1.186808817E0,-1.095347255E-1,-2.813187055E-2,9.601945877E0
1.188806890E0,-1.717839688E-1,-2.813187055E-2,9.850942612E0
1.190805015E0,-2.771288455E-1,-4.728548229E-2,9.994594574E0
1.192803192E0,-2.340332121E-1,7.242459804E-2,9.937133789E0
1.194801422E0,-1.861491799E-1,6.284779310E-2,8.701725960E0
1.196799703E0,-1.957259923E-1,-1.334767491E-1,8.917203903E0
1.198797984E0,-1.622071713E-1,-2.867056429E-1,9.870096207E0
1.200796317E0,-1.813607812E-1,-3.154360652E-1,1.108156300E1
1.202794703E0,-2.627636492E-1,-2.867056429E-1,1.054047298E1
1.204793088E0,-6.841431260E-1,-9.038111567E-2,9.204508781E0
1.206791474E0,-5.213374496E-1,-3.154360652E-1,9.415198326E0
1.208789859E0,-5.979518890E-1,-3.681085110E-1,1.039682102E1
1.210788245E0,-9.139865041E-1,-3.298012912E-1,9.515754700E0
1.212786630E0,-9.139865041E-1,-4.926069975E-1,9.137471199E0
1.214785015E0,-1.100734234E0,-5.644330382E-1,9.123106003E0
1.216783401E0,-9.762357473E-1,-8.038532138E-1,9.592369080E0
1.218781786E0,-1.000177741E0,-8.661024570E-1,9.683348656E0
1.220780172E0,-1.139041424E0,-8.373720646E-1,9.405621529E0
1.222778609E0,-1.004966140E0,-9.906009436E-1,9.467870712E0
1.224777099E0,-1.019331336E0,-1.009754539E0,8.917203903E0
1.226775588E0,-1.009754539E0,-1.110311031E0,9.032125473E0
1.228774078E0,-8.996213078E-1,-1.129464626E0,9.223662376E0
1.230772567E0,-5.548562407E-1,-1.230021119E0,9.827000618E0
1.232771057E0,-6.745663285E-1,-1.009754539E0,9.376891136E0
1.234769547E0,-3.681085110E-1,-1.206079125E0,9.515754700E0
1.236768036E0,-8.559270948E-2,-1.253963113E0,1.021965027E1
1.238766526E0,3.411737457E-2,-1.129464626E0,1.052131939E1
1.240765015E0,1.921346933E-1,-1.062427044E0,1.048301220E1
1.242763505E0,4.171896577E-1,-1.057638645E0,1.074158573E1
1.244761995E0,2.064998895E-1,-7.032967210E-1,9.587580681E0
1.246760328E0,5.752069354E-1,-4.878185987E-1,9.352949142E0
1.248758661E0,7.140706778E-1,-4.495113790E-1,9.549273491E0
1.250756995E0,8.672995567E-1,-5.309142470E-1,1.005205631E1
1.252755328E0,9.630676508E-1,-6.314706802E-1,1.036330223E1
1.254753661E0,7.523778677E-1,-6.458359361E-1,1.008078671E1
1.256751995E0,7.906851172E-1,-7.799112201E-1,9.798270226E0
1.258750328E0,1.068412542E0,-9.331400990E-1,1.012867069E1
1.260748661E0,9.247604012E-1,-8.756792545E-1,1.031062984E1
1.262746995E0,1.106719732E0,-8.565256596E-1,1.041597462E1
1.264745328E0,1.149815321E0,-6.985083222E-1,1.012867069E1
1.266743661E0,1.025316834E0,-6.027402878E-1,9.774328232E0
1.268741995E0,1.159392118E0,-6.554127336E-1,9.788693428E0
1.270740328E0,7.619546652E-1,-6.171054840E-1,9.712079048E0
1.272738661E0,8.577227592E-1,-9.858125448E-1,9.975440979E0
1.274736995E0,8.337807655E-1,-1.253963113E0,9.678560257E0
1.276735328E0,4.794389009E-1,-1.095945835E0,9.118317604E0
1.278733661E0,8.337807655E-1,-1.431134105E0,9.855731010E0
1.280731995E0,6.374561787E-1,-1.584362984E0,9.898826599E0
1.282730328E0,6.613982320E-1,-1.689707875E0,1.039203262E1
1.284728661E0,5.512649417E-1,-1.411980510E0,8.577227592E0
1.286726995E0,5.273229480E-1,-1.641823769E0,8.136694908E0
1.288725328E0,3.645172119E-1,-1.981800437E0,8.443152428E0
1.290723713E0,5.368997455E-1,-2.455852509E0,9.702502251E0
1.292722151E0,3.453635871E-1,-2.561197281E0,1.049737740E1
1.294720588E0,8.678980917E-2,-2.451063871E0,9.271546364E0
1.296719026E0,2.831143439E-1,-2.728791475E0,9.970652580E0
1.298717463E0,1.586158574E-1,-2.838924646E0,1.030105305E1
1.300715901E0,1.203086376E-1,-2.934692621E0,1.081820011E1
1.302714390E0,-1.047463268E-1,-2.604292870E0,1.040639782E1
1.304712932E0,1.975216344E-2,-2.431910276E0,9.668983459E0
1.306711474E0,-3.537433147E-1,-2.307411909E0,9.099164009E0
1.308710015E0,-2.531868219E-1,-2.321777105E0,9.075222015E0
1.310708557E0,-4.878185987E-1,-2.029684544E0,9.228450775E0
1.312707099E0,-3.776853085E-1,-1.967435241E0,9.175778389E0
1.314705640E0,-3.441664875E-1,-1.895609140E0,9.199720383E0
1.316704130E0,-1.238999367E-1,-2.149394512E0,9.975440979E0
1.318702203E0,-1.238999367E-1,-2.139817715E0,1.054047298E1
1.320700276E0,-5.357026458E-1,-1.876455545E0,9.563638687E0
1.322698349E0,-9.516951442E-2,-1.977012038E0,9.477447510E0
1.324696317E0,-3.345896900E-1,-1.962646842E0,9.850942612E0
1.326694130E0,1.490390599E-1,-2.369661093E0,1.036330223E1
1.328691942E0,-1.238999367E-1,-2.518101692E0,9.855731010E0
1.330689755E0,-2.053027898E-1,-2.594716072E0,8.893261909E0
1.332687567E0,1.017535757E-2,-2.891597033E0,9.817423820E0
1.334685380E0,4.028244317E-1,-3.202843428E0,1.093312168E1
1.336683245E0,2.639607489E-1,-3.092710018E0,1.043033981E1
1.338681161E0,3.405751884E-1,-3.202843428E0,9.434351921E0
1.340679130E0,4.602852762E-1,-3.461417198E0,9.774328232E0
1.342677151E0,7.858967185E-1,-3.633799553E0,1.010472870E1
1.344675224E0,7.858967185E-1,-3.629011154E0,9.994594574E0
1.346673401E0,9.103952050E-1,-3.691260576E0,9.453505516E0
1.348671682E0,7.954735160E-1,-3.767874956E0,9.654618263E0
1.350670015E0,9.439139962E-1,-3.887584925E0,9.621099472E0
1.352668401E0,9.151836038E-1,-4.103063107E0,9.578003883E0
1.354666838E0,1.092354536E0,-4.466981888E0,1.029147625E1
1.356665328E0,8.672995567E-1,-4.519654274E0,9.803058624E0
1.358663870E0,1.068412542E0,-4.759074211E0,9.975440979E0
1.360662463E0,9.103952050E-1,-4.615422249E0,9.731232643E0
1.362661057E0,8.577227592E-1,-4.634575844E0,9.779116631E0
1.364659651E0,9.056068063E-1,-4.706401825E0,9.946710587E0
1.366658245E0,8.529343605E-1,-4.596268654E0,9.980229378E0
1.368656422E0,9.103952050E-1,-4.462193489E0,9.793481827E0
1.370654442E0,1.192911029E0,-4.538807869E0,1.030105305E1
1.372652463E0,7.284358740E-1,-4.079121113E0,9.587580681E0
1.374650484E0,8.529343605E-1,-3.930680752E0,9.218873978E0
1.376648505E0,9.343371987E-1,-3.782240152E0,9.424775124E0
1.378646526E0,7.667431235E-1,-3.595492363E0,9.539696693E0
1.380644547E0,9.343371987E-1,-3.609857559E0,9.194931984E0
1.382642567E0,8.529343605E-1,-3.624222755E0,9.329007149E0
1.384640640E0,8.864531517E-1,-3.691260576E0,9.640253067E0
1.386638765E0,9.822212458E-1,-3.825335741E0,1.031541824E1
1.388636942E0,7.715315223E-1,-3.743932962E0,1.010472870E1
1.390635172E0,9.056068063E-1,-3.672106743E0,9.965864182E0
1.392633401E0,7.667431235E-1,-3.413532972E0,9.774328232E0
1.394631630E0,9.056068063E-1,-3.236362219E0,9.774328232E0
1.396629859E0,9.103952050E-1,-3.102286816E0,9.850942612E0
1.398628140E0,9.295488000E-1,-3.063979626E0,9.793481827E0
1.400626474E0,8.768763542E-1,-2.987365246E0,9.621099472E0
1.402624859E0,9.439139962E-1,-3.049614429E0,9.755174637E0
1.404623297E0,7.619546652E-1,-2.968211651E0,9.985017776E0
1.406621734E0,7.236474752E-1,-2.973000050E0,9.582792282E0
1.408620172E0,6.757634282E-1,-2.939481020E0,9.271546364E0
1.410618609E0,5.799953341E-1,-2.633023262E0,9.233239174E0
1.412617047E0,7.044938207E-1,-1.809417963E0,8.529343605E0
1.414615484E0,5.943605900E-1,-2.087145329E0,9.405621529E0
1.416613765E0,4.602852762E-1,-2.230797529E0,1.007120991E1
1.418611838E0,4.219780564E-1,-2.455852509E0,9.985017776E0
1.420609911E0,3.836708367E-1,-3.030460835E0,1.024838066E1
1.422607984E0,4.076128304E-1,-3.389590979E0,1.031541824E1
1.424606057E0,4.746504724E-1,-3.576338768E0,9.985017776E0
1.426604130E0,4.554968774E-1,-3.791816950E0,9.894038200E0
1.428602203E0,4.459200799E-1,-3.916315317E0,9.860519409E0
1.430600276E0,5.560533404E-1,-4.122216702E0,9.975440979E0
1.432598349E0,5.464765429E-1,-4.270657063E0,9.793481827E0
1.434596422E0,5.560533404E-1,-4.423886299E0,9.764751434E0
1.436594547E0,5.081692934E-1,-4.529231071E0,9.659406662E0
1.438592724E0,4.507084787E-1,-4.624999046E0,9.396044731E0
1.440590953E0,4.363432527E-1,-4.797381878E0,9.285911560E0
1.442589234E0,3.118447661E-1,-4.941033840E0,9.678560257E0
1.444587567E0,2.783259451E-1,-4.964975834E0,1.026274586E1
1.446585953E0,2.831143439E-1,-4.917091846E0,1.057399178E1
1.448584338E0,1.586158574E-1,-4.749497414E0,1.013345909E1
1.450582724E0,9.636662155E-2,-4.586691856E0,9.285911560E0
1.452581109E0,1.107318252E-1,-4.500500679E0,8.931569099E0
1.454579495E0,6.763619930E-2,-4.500500679E0,9.123106003E0
1.456577880E0,6.284779310E-2,-4.534019470E0,9.539696693E0
1.458576265E0,8.200141042E-2,-4.553173065E0,9.817423820E0
1.460574651E0,1.107318252E-1,-4.510077477E0,9.980229378E0
1.462573036E0,1.538274586E-1,-2.580350876E0,8.467094421E0
1.464571370E0,9.157821536E-2,-2.326565504E0,8.050502777E0
1.466569703E0,-3.250128925E-1,-2.556408882E0,9.467870712E0
1.468567828E0,-4.303577542E-1,-2.747945070E0,1.009994030E1
1.470565953E0,-4.159925580E-1,-3.040037632E0,1.045428181E1
1.472564078E0,-4.782418013E-1,-3.705625772E0,1.116296577E1
1.474562203E0,-4.016273320E-1,-4.093486309E0,1.109592819E1
1.476560328E0,-2.627636492E-1,-4.332906723E0,1.029626465E1
1.478558453E0,-1.622071713E-1,-4.696825027E0,1.022922707E1
1.480556578E0,-7.601590455E-2,-5.099050999E0,1.039203262E1
1.482554703E0,-3.770867735E-2,-5.429450989E0,1.054526138E1
1.484552828E0,-1.855506375E-2,-5.644928932E0,1.016697788E1
1.486550953E0,-8.978256024E-3,-5.783792973E0,9.860519409E0
1.488549078E0,1.017535757E-2,-5.836465359E0,9.649829865E0
1.490547203E0,-3.292027488E-2,-5.908291340E0,9.419986725E0
1.492545328E0,-7.601590455E-2,-5.937021732E0,9.271546364E0
1.494543453E0,-1.526303589E-1,-5.922656536E0,9.180566788E0
1.496541578E0,-1.765723825E-1,-5.865195751E0,9.204508781E0
1.498539703E0,-1.909375787E-1,-5.826888561E0,9.252392769E0
1.500537828E0,-2.053027898E-1,-5.707178116E0,9.491812706E0
1.502535953E0,-2.292448133E-1,-5.592256546E0,9.625887871E0
1.504534078E0,-2.723404467E-1,-5.429450989E0,9.750386238E0
1.506532203E0,-3.441664875E-1,-5.290587425E0,9.731232643E0
1.508530328E0,-3.681085110E-1,-5.122992992E0,9.731232643E0
1.510528453E0,-4.542997777E-1,-4.993706226E0,9.716867447E0
1.512526578E0,-5.165489912E-1,-4.768651009E0,9.482235909E0
1.514524703E0,-6.314706802E-1,-2.345719099E0,5.761646271E0
1.516522828E0,-8.613140583E-1,-1.866878748E0,5.153519154E0
1.518520953E0,-1.119887829E0,-2.048838139E0,7.289146900E0
1.520519078E0,-8.948329091E-1,-2.302623510E0,8.586804390E0
1.522517255E0,-6.362590790E-1,-2.747945070E0,9.922768593E0
1.524515432E0,-3.920505345E-1,-3.274669409E0,1.090917969E1
1.526513661E0,-4.249707982E-2,-3.806182146E0,1.133055973E1
1.528511890E0,2.304419130E-1,-4.261080265E0,1.092833328E1
1.530510120E0,3.118447661E-1,-4.668094635E0,1.061229897E1
1.532508349E0,3.453635871E-1,-4.797381878E0,9.946710587E0
1.534506578E0,2.926911712E-1,-4.912303448E0,9.846154213E0
1.536504807E0,2.687491477E-1,-5.017648220E0,9.788693428E0
1.538503036E0,2.160767019E-1,-5.209184170E0,1.005684471E1
1.540501317E0,1.825578809E-1,-5.520430565E0,1.038724422E1
1.542499651E0,2.448071241E-1,-5.683236122E0,1.027711105E1
1.544498036E0,3.405751884E-1,-5.620986938E0,9.257181168E0
1.546496474E0,3.405751884E-1,-5.534795761E0,8.352172852E0
1.548494911E0,2.879027426E-1,-5.539584160E0,7.667430878E0
