"Time (s)","Acceleration x (m/s^2)","Acceleration y (m/s^2)","Acceleration z (m/s^2)"
2.241502100E-2,1.442506462E-1,9.487023950E-1,9.625887871E0
2.336627100E-2,1.203086376E-1,8.912416101E-1,9.659406662E0
2.533148000E-2,1.298854351E-1,8.625111580E-1,9.688137054E0
2.729668800E-2,1.490390599E-1,8.337807655E-1,9.707290649E0
2.926189600E-2,1.011550203E-1,8.337807655E-1,9.664195061E0
3.122710500E-2,9.157821536E-2,7.906851172E-1,9.582792282E0
3.319231300E-2,7.721300423E-2,8.433575630E-1,9.587580681E0
3.515752100E-2,5.805939063E-2,8.720879555E-1,9.611522675E0
3.712273000E-2,3.890577704E-2,9.295488000E-1,9.611522675E0
3.908793800E-2,4.369417951E-2,9.822212458E-1,9.554061890E0
4.105314600E-2,1.975216344E-2,1.097142935E0,9.463082314E0
4.301835500E-2,1.975216344E-2,1.192911029E0,9.573215485E0
4.498356300E-2,1.017535757E-2,1.259948611E0,9.601945877E0
4.694877100E-2,-3.770867735E-2,1.307832718E0,9.688137054E0
4.891398000E-2,-1.047463268E-1,1.303044319E0,9.664195061E0
5.087918800E-2,-1.191115379E-1,1.374870300E0,9.578003883E0
5.284439600E-2,-8.080431074E-2,1.485003591E0,9.611522675E0
5.480960500E-2,-7.122749835E-2,1.470638394E0,9.731232643E0
5.677481300E-2,-6.643909961E-2,1.504157186E0,9.822212219E0
5.874002100E-2,-5.207388848E-2,1.566406488E0,9.769539833E0
6.070523000E-2,-5.207388848E-2,1.599925280E0,9.759963036E0
6.267043800E-2,-7.122749835E-2,1.628655672E0,9.860519409E0
6.463564600E-2,-8.080431074E-2,1.609502077E0,9.879673004E0
6.660085500E-2,-8.559270948E-2,1.647809267E0,9.884461403E0
6.856606300E-2,-6.165069342E-2,1.853710651E0,9.798270226E0
7.053127100E-2,-8.978256024E-3,1.829768658E0,9.908403397E0
7.249648000E-2,4.369417951E-2,1.949478745E0,9.961075783E0
7.446168800E-2,5.805939063E-2,2.054823637E0,9.860519409E0
7.642689600E-2,6.284779310E-2,2.136226416E0,9.855731010E0
7.839210500E-2,5.805939063E-2,2.198475599E0,9.879673004E0
8.035804200E-2,-4.249707982E-2,2.188898802E0,1.001374817E1
8.232601100E-2,-1.143231317E-1,2.136226416E0,1.021007347E1
8.429715700E-2,-7.122749835E-2,2.227206230E0,1.010951710E1
8.627241700E-2,-7.122749835E-2,2.289455414E0,9.889249802E0
8.825257300E-2,-8.080431074E-2,2.299032211E0,9.827000618E0
9.023814600E-2,-5.686229095E-2,2.308609009E0,9.850942612E0
9.222944800E-2,-1.376665942E-2,2.198475599E0,9.855731010E0
9.422653200E-2,-4.189853091E-3,2.270301819E0,9.946710587E0
9.622924000E-2,5.985504249E-4,2.236783028E0,1.001374817E1
9.823715700E-2,2.932897024E-2,2.275090218E0,9.894038200E0
1.002497090E-1,-4.249707982E-2,2.322974205E0,9.726444244E0
1.022661670E-1,-1.143231317E-1,2.332551003E0,9.894038200E0
1.042856460E-1,-1.143231317E-1,2.433107376E0,9.463082314E0
1.063071570E-1,-1.238999367E-1,2.299032211E0,9.980229378E0
1.083297090E-1,-1.095347255E-1,2.284667015E0,9.985017776E0
1.103523130E-1,-1.382651478E-1,2.356492996E0,9.506177902E0
1.123525730E-1,-1.430535465E-1,2.236783028E0,9.582792282E0
1.143510630E-1,-1.478419602E-1,2.203263998E0,9.611522675E0
1.163493440E-1,-8.080431074E-2,2.198475599E0,9.649829865E0
1.183475730E-1,-9.516951442E-2,2.131438017E0,9.664195061E0
1.203458030E-1,-4.249707982E-2,2.126649618E0,9.649829865E0
1.223440320E-1,-8.978256024E-3,2.164956808E0,9.697713852E0
1.243422610E-1,-4.189853091E-3,2.255936623E0,9.558850288E0
1.263404900E-1,-3.292027488E-2,2.246359825E0,9.544485092E0
1.283387190E-1,5.985504249E-4,2.117072821E0,9.740809441E0
1.303369480E-1,-7.122749835E-2,2.222417831E0,9.692925453E0
1.323351780E-1,-6.165069342E-2,2.260725021E0,9.621099472E0
1.343334590E-1,-1.376665942E-2,2.145803213E0,9.946710587E0
1.363317920E-1,-9.038111567E-2,2.275090218E0,9.400833130E0
1.383301780E-1,-9.038111567E-2,2.380434990E0,9.257181168E0
1.403286150E-1,-1.855506375E-2,2.203263998E0,1.005684471E1
1.423271050E-1,5.327098817E-2,2.169745207E0,1.003769016E1
1.443256460E-1,2.454056777E-2,2.409165382E0,9.582792282E0
1.463242400E-1,-4.728548229E-2,2.466626406E0,9.477447510E0
1.483228860E-1,-6.643909961E-2,2.356492996E0,9.592369080E0
1.503215320E-1,-3.770867735E-2,2.390011787E0,9.664195061E0
1.523201780E-1,5.327098817E-2,2.562394381E0,9.630676270E0
1.543188230E-1,1.155202314E-1,2.557605982E0,9.606734276E0
1.563174690E-1,1.203086376E-1,2.500145197E0,9.683348656E0
1.583157500E-1,1.538274586E-1,2.480991602E0,9.793481827E0
1.603140320E-1,1.586158574E-1,2.567182779E0,9.616311073E0
1.623123130E-1,1.921346933E-1,2.629431963E0,9.736021042E0
1.643105940E-1,2.064998895E-1,2.413953781E0,9.702502251E0
1.663088750E-1,2.256535143E-1,2.452261209E0,9.827000618E0
1.683072090E-1,2.112883031E-1,2.672527552E0,9.482235909E0
1.703055940E-1,3.453635871E-1,2.624643564E0,9.692925453E0
1.723040320E-1,2.783259451E-1,2.366069794E0,9.961075783E0
1.743025210E-1,2.591723204E-1,2.270301819E0,1.008078671E1
1.763010630E-1,3.070563674E-1,2.442684174E0,9.692925453E0
1.782996570E-1,2.400187254E-1,2.409165382E0,9.520543098E0
1.802982500E-1,2.352303118E-1,2.461838007E0,9.458293915E0
1.822968440E-1,2.256535143E-1,2.528875589E0,9.482235909E0
1.842954380E-1,2.783259451E-1,2.375646591E0,9.999382973E0
1.862940320E-1,2.687491477E-1,2.380434990E0,1.021965027E1
1.882926250E-1,2.495955229E-1,2.586336374E0,9.759963036E0
1.902912190E-1,2.400187254E-1,2.605489969E0,9.439140320E0
1.922898130E-1,2.112883031E-1,2.557605982E0,9.510966301E0
1.942884070E-1,1.538274586E-1,2.538452387E0,9.477447510E0
1.962870000E-1,2.064998895E-1,2.461838007E0,9.970652580E0
1.982855940E-1,1.921346933E-1,2.514510393E0,9.635464668E0
2.002841880E-1,2.687491477E-1,2.385223389E0,9.147047997E0
2.022827820E-1,3.549404144E-1,2.533663988E0,9.333795547E0
2.042813750E-1,3.693056107E-1,2.653373957E0,9.151836395E0
2.062799690E-1,5.608417392E-1,2.366069794E0,9.094375610E0
2.082785630E-1,1.633444071E0,3.693056107E-1,1.169447803E1
2.102770000E-1,1.441908002E0,-2.005143911E-1,1.299213505E1
2.122752820E-1,2.256535143E-1,1.757942557E0,8.213309288E0
2.142735630E-1,-9.283517003E-1,3.946243048E0,5.196614742E0
2.162718440E-1,-1.148618221E0,4.080318451E0,9.127894402E0
2.182701250E-1,-1.517325282E0,3.807379246E0,1.091875648E1
2.202684070E-1,-1.325789213E0,3.634996653E0,1.064102936E1
2.222666880E-1,-9.475052953E-1,3.812167645E0,9.089587212E0
2.242649690E-1,-4.016273320E-1,3.491344690E0,8.514978409E0
2.262632500E-1,4.267664552E-1,2.557605982E0,1.066497135E1
2.282615320E-1,5.847837925E-1,2.385223389E0,1.033936024E1
2.302598130E-1,5.225345492E-1,2.241571426E0,9.716867447E0
2.322580940E-1,6.613982320E-1,2.117072821E0,9.319430351E0
2.342563750E-1,6.757634282E-1,1.643020868E0,9.606734276E0
2.362546570E-1,6.518214345E-1,1.595136881E0,9.625887871E0
2.382529900E-1,6.039373875E-1,1.973420739E0,9.429563522E0
2.402513750E-1,5.321113467E-1,2.006939650E0,1.031062984E1
2.422497610E-1,5.273229480E-1,1.892017841E0,1.057878017E1
2.442481460E-1,3.309983909E-1,2.327762604E0,1.008078671E1
2.462465320E-1,-5.686229095E-2,2.907159328E0,9.477447510E0
2.482449170E-1,-2.819172442E-1,2.686892748E0,1.011909389E1
2.502433030E-1,-3.292027488E-2,3.069965124E0,8.629899979E0
2.522416880E-1,6.853402257E-1,2.509721994E0,8.682572365E0
2.542400730E-1,8.912416101E-1,1.801038265E0,8.912415504E0
2.562384590E-1,2.352303118E-1,2.337339401E0,9.755174637E0
2.582368440E-1,-3.585317135E-1,3.060388327E0,9.051279068E0
2.602352300E-1,-1.086369038E0,3.735553265E0,8.074444771E0
2.622336150E-1,-1.450287700E0,3.496133089E0,8.989029884E0
2.642320000E-1,-1.378461599E0,3.227982521E0,9.831789017E0
2.662303860E-1,-1.531690478E0,3.476979494E0,8.366538048E0
2.682287710E-1,-1.579574585E0,3.194463730E0,9.113529205E0
2.702271570E-1,-1.028908134E0,2.586336374E0,9.970652580E0
2.722255420E-1,-5.357026458E-1,2.279878616E0,9.769539833E0
2.742239280E-1,1.394622475E-1,1.949478745E0,1.032499504E1
2.762223130E-1,6.566098332E-1,1.992574334E0,1.052131939E1
2.782206980E-1,8.146271110E-1,2.030881643E0,1.052131939E1
2.802190840E-1,8.194155097E-1,1.920748353E0,1.090439129E1
2.822174170E-1,6.183025837E-1,2.303820610E0,9.999382973E0
2.842156980E-1,3.693056107E-1,2.313397408E0,1.031541824E1
2.862139800E-1,3.309983909E-1,2.145803213E0,1.120127296E1
2.882122610E-1,-2.813187055E-2,2.394800186E0,1.084693050E1
2.902105420E-1,-8.978256024E-3,3.031657934E0,9.453505516E0
2.922088230E-1,-2.813187055E-2,2.988562346E0,1.049258900E1
2.942071050E-1,4.369417951E-2,3.227982521E0,1.055483818E1
2.962053860E-1,-9.038111567E-2,3.261501312E0,1.047822380E1
2.982035110E-1,-1.909375787E-1,3.127425909E0,1.089960289E1
3.002016360E-1,-1.574187577E-1,3.232770920E0,9.879673004E0
3.021997610E-1,1.107318252E-1,3.156156301E0,1.001853657E1
3.041978860E-1,9.157821536E-2,3.050811529E0,1.082777691E1
3.061960110E-1,-1.376665942E-2,2.964620352E0,1.005684471E1
3.081941360E-1,-1.765723825E-1,2.907159328E0,9.094375610E0
3.101923130E-1,-1.382651478E-1,2.524087191E0,1.018613148E1
3.121905420E-1,-2.723404467E-1,2.610278368E0,9.716867447E0
3.141888230E-1,-3.633201122E-1,2.615066767E0,1.012388229E1
3.161871570E-1,-3.154360652E-1,3.141791105E0,8.960299492E0
3.181855420E-1,-4.303577542E-1,2.696469545E0,9.616311073E0
3.201839800E-1,-4.255693555E-1,2.174533606E0,1.016697788E1
3.221824170E-1,-1.574187577E-1,2.179322004E0,1.031062984E1
3.241808550E-1,-2.723404467E-1,2.696469545E0,9.630676270E0
3.261792920E-1,-3.489548862E-1,2.744353771E0,8.740033150E0
3.281777300E-1,-2.675520480E-1,1.461061597E0,1.133534813E1
3.301761670E-1,-2.579752207E-1,2.342127800E0,8.443152428E0
3.321746050E-1,-3.298012912E-1,2.356492996E0,8.242039680E0
3.341730420E-1,-1.622071713E-1,2.275090218E0,9.726444244E0
3.361714800E-1,-6.165069342E-2,2.509721994E0,9.788693428E0
3.381699170E-1,-5.207388848E-2,2.538452387E0,9.860519409E0
3.401683550E-1,5.386953708E-3,2.198475599E0,1.055962658E1
3.421667920E-1,-3.154360652E-1,3.060388327E0,7.351396084E0
3.441652300E-1,-3.489548862E-1,2.916736126E0,8.763975143E0
3.461636670E-1,-3.292027488E-2,1.571194887E0,1.327943993E1
3.481621050E-1,-6.218938828E-1,3.290231705E0,7.155071735E0
3.501605420E-1,-6.458359361E-1,3.385999680E0,7.858967304E0
3.521589800E-1,-5.931634903E-1,1.796249866E0,1.290594387E1
3.541574170E-1,-7.272387743E-1,3.151367903E0,9.745597839E0
3.561558550E-1,-6.458359361E-1,3.113060713E0,9.180566788E0
3.581542920E-1,-6.937199235E-1,2.959831953E0,9.568427086E0
3.601527300E-1,-8.852560520E-1,3.400364876E0,8.826224327E0
3.621511670E-1,-8.517372608E-1,3.098695517E0,1.160349846E1
3.641493440E-1,-7.511807680E-1,3.026869535E0,9.625887871E0
3.661474170E-1,-1.043273449E0,3.567959070E0,7.772775650E0
3.681454900E-1,-8.325836658E-1,3.414730072E0,9.659406662E0
3.701435630E-1,-6.458359361E-1,3.160944700E0,1.026753426E1
3.721416360E-1,-3.920505345E-1,3.481767893E0,1.047822380E1
3.741397090E-1,-5.117605925E-1,3.271078110E0,1.000417137E1
3.761377820E-1,-4.399345517E-1,3.409941673E0,8.265981674E0
3.781358550E-1,-2.627636492E-1,1.901594758E0,1.078468132E1
3.801339800E-1,-3.776853085E-1,2.500145197E0,9.060855865E0
3.821321050E-1,-2.962824702E-1,2.346916199E0,9.697713852E0
3.841302820E-1,-1.622071713E-1,2.825756550E0,1.049737740E1
3.861285110E-1,-6.643909961E-2,3.208828926E0,1.052610779E1
3.881267920E-1,-1.574187577E-1,3.275866508E0,8.016983986E0
3.901250730E-1,-2.005143911E-1,2.801814556E0,1.044949341E1
3.921233550E-1,-2.579752207E-1,3.424306870E0,1.010472870E1
3.941216360E-1,-2.436100245E-1,4.200028419E0,9.099164009E0
3.961199690E-1,-9.038111567E-2,4.449025154E0,7.605181694E0
3.981183030E-1,1.203086376E-1,3.271078110E0,1.204882050E1
4.001166360E-1,1.921346933E-1,3.917512417E0,9.534908295E0
4.021149690E-1,3.740940094E-1,3.706822872E0,9.688137054E0
4.041133030E-1,4.369417951E-2,3.883993626E0,1.023880386E1
4.061116360E-1,-3.770867735E-2,5.081094742E0,7.595604897E0
4.081099690E-1,2.974795699E-1,3.845686436E0,1.123479176E1
4.101083030E-1,3.405751884E-1,4.860827923E0,8.658630371E0
4.121066360E-1,4.411316514E-1,4.472967148E0,9.937133789E0
4.141049690E-1,6.087257862E-1,4.434659958E0,1.034893703E1
4.161033030E-1,4.076128304E-1,3.869628429E0,1.008078671E1
4.181016360E-1,5.943605900E-1,4.386775970E0,1.014303589E1
4.200999690E-1,4.315548539E-1,5.703587055E0,9.113529205E0
4.220983030E-1,2.591723204E-1,5.234323502E0,9.822212219E0
4.240966360E-1,4.171896577E-1,4.219182014E0,1.128746414E1
4.260949690E-1,4.124012291E-1,5.263053894E0,8.960299492E0
4.280931460E-1,1.107318252E-1,5.885546207E0,7.375338554E0
4.300913230E-1,3.309983909E-1,5.176862717E0,9.917980194E0
4.320895000E-1,3.645172119E-1,4.793790340E0,1.085171890E1
4.340876780E-1,4.848258570E-2,5.871181011E0,7.873332500E0
4.360858550E-1,1.969230920E-1,3.965396643E0,1.345182228E1
4.380840320E-1,-3.292027488E-2,5.267842293E0,8.644265175E0
4.400822090E-1,-5.207388848E-2,4.903923512E0,1.018134308E1
4.420803860E-1,-8.080431074E-2,4.875193119E0,6.997054577E0
4.440785630E-1,-5.686229095E-2,3.706822872E0,1.174715042E1
4.460767400E-1,9.157821536E-2,4.841674328E0,9.985017776E0
4.480749690E-1,2.064998895E-1,4.741117954E0,9.199720383E0
4.500732500E-1,2.160767019E-1,3.793014050E0,9.649829865E0
4.520715840E-1,-1.047463268E-1,4.937442303E0,1.000895977E1
4.540699690E-1,-3.154360652E-1,4.080318451E0,7.303512096E0
4.560683550E-1,8.678980917E-2,2.897582531E0,1.353801346E1
4.580667400E-1,4.369417951E-2,3.946243048E0,8.395268440E0
4.600651250E-1,-1.909375787E-1,3.678092480E0,8.045714378E0
4.620635110E-1,9.636662155E-2,3.089118719E0,1.097142887E1
4.640618960E-1,2.932897024E-2,4.377199173E0,1.043512821E1
4.660602820E-1,-3.776853085E-1,5.780201435E0,6.293159008E0
4.680586670E-1,1.017535757E-2,3.807379246E0,1.185249519E1
4.700570530E-1,1.975216344E-2,3.998915434E0,1.002811337E1
4.720554380E-1,2.735375464E-1,3.213617325E0,1.240316200E1
4.740538230E-1,1.203086376E-1,5.368398666E0,4.775235176E0
4.760522090E-1,4.363432527E-1,3.290231705E0,1.274792671E1
4.780505940E-1,5.805939063E-2,3.496133089E0,9.108740807E0
4.800489800E-1,-1.478419602E-1,3.611054659E0,1.277665710E1
4.820473650E-1,-8.080431074E-2,5.401917458E0,8.213309288E0
4.840457500E-1,-3.298012912E-1,6.062717438E0,5.522226334E0
4.860441360E-1,3.453635871E-1,3.299808502E0,1.267610073E1
4.880423650E-1,4.650736749E-1,2.682104349E0,1.043512821E1
4.900405940E-1,3.357867897E-1,4.037222385E0,8.778340340E0
4.920388230E-1,3.740940094E-1,3.491344690E0,1.169926643E1
4.940370530E-1,-7.122749835E-2,3.974973440E0,6.312312603E0
4.960352820E-1,5.368997455E-1,3.567959070E0,1.067933655E1
4.980335110E-1,5.416881442E-1,2.303820610E0,1.154603767E1
5.000317400E-1,6.135141850E-1,3.127425909E0,9.664195061E0
5.020299690E-1,1.921346933E-1,3.266289711E0,9.419986725E0
5.040281980E-1,3.836708367E-1,3.074753523E0,9.271546364E0
5.060264280E-1,4.554968774E-1,3.601477861E0,9.094375610E0
5.080246570E-1,3.453635871E-1,3.869628429E0,1.159392166E1
5.100228860E-1,2.543839216E-1,4.070741653E0,7.250839710E0
5.120211150E-1,4.411316514E-1,2.739565372E0,1.177109241E1
5.140193440E-1,4.698620737E-1,3.721188068E0,8.304288864E0
5.160175730E-1,3.022679687E-1,4.659715176E0,7.202955723E0
5.180158030E-1,6.039373875E-1,3.845686436E0,1.152209568E1
5.200140320E-1,4.602852762E-1,1.824980259E0,1.212543488E1
5.220122610E-1,2.543839216E-1,4.338891983E0,7.111976147E0
5.240104900E-1,1.442506462E-1,2.816179752E0,1.019570827E1
5.260087190E-1,2.017114908E-1,2.026093245E0,1.015740108E1
5.280069480E-1,2.448071241E-1,2.016516447E0,1.040639782E1
5.300051780E-1,3.214215636E-1,3.218405724E0,7.504625320E0
5.320034070E-1,4.507084787E-1,1.370081902E0,1.265694714E1
5.340016360E-1,-2.819172442E-1,9.247604012E-1,8.811859131E0
5.359999170E-1,-1.478419602E-1,3.022679687E-1,1.094269848E1
5.379982500E-1,-2.292448133E-1,3.007715940E0,8.160636902E0
5.399965840E-1,-1.478419602E-1,3.936666250E0,9.214085579E0
5.419949170E-1,-8.559270948E-2,2.385223389E0,9.309853554E0
5.439932500E-1,-7.122749835E-2,1.561618090E0,1.156997967E1
5.459915840E-1,-8.080431074E-2,2.964620352E0,1.021486187E1
5.479899170E-1,1.921346933E-1,3.658938646E0,8.831012726E0
5.499882500E-1,-1.095347255E-1,4.420294762E0,7.849390507E0
5.519865840E-1,6.422445774E-1,2.825756550E0,1.033936024E1
5.539849170E-1,2.974795699E-1,3.175309896E0,1.177109241E1
5.559832500E-1,2.687491477E-1,4.803367138E0,8.921992302E0
5.579815840E-1,4.794389009E-1,3.946243048E0,1.150294209E1
5.599799170E-1,3.411737457E-2,4.779425144E0,9.692925453E0
5.619782500E-1,4.554968774E-1,5.804143429E0,7.677007675E0
5.639765840E-1,1.077989340E0,4.856039524E0,7.265204906E0
5.659749170E-1,1.772307754E0,9.343371987E-1,1.165138245E1
5.679732500E-1,1.499368787E0,3.017292738E0,1.530972290E1
5.699715840E-1,1.513733983E0,3.879205227E0,2.290053844E0
5.719699170E-1,9.391255975E-1,2.251148224E0,1.281496429E1
5.739682500E-1,9.678560495E-1,3.227982521E0,7.389703751E0
5.759665840E-1,7.619546652E-1,1.959055543E0,1.200093555E1
5.779649170E-1,7.332242727E-1,1.374870300E0,9.913191795E0
5.799632500E-1,6.661866307E-1,3.184886694E0,6.829460144E0
5.819615840E-1,8.242039084E-1,2.739565372E0,1.044470501E1
5.839599170E-1,2.160767019E-1,3.405751884E-1,9.194931984E0
5.859582500E-1,2.879027426E-1,8.242039084E-1,1.301128960E1
5.879565840E-1,4.171896577E-1,2.878428936E0,8.069656372E0
5.899549170E-1,-7.601590455E-2,2.356492996E0,8.701725960E0
5.919532500E-1,3.070563674E-1,2.155380011E0,1.060751057E1
5.939516360E-1,-2.627636492E-1,2.691681147E0,9.558850288E0
5.959500730E-1,-4.189853091E-3,2.610278368E0,1.138802052E1
5.979485630E-1,-4.303577542E-1,3.903147221E0,6.317101002E0
5.999471050E-1,-6.602011323E-1,3.682880878E0,1.024359226E1
6.019456460E-1,2.208651006E-1,3.606266260E0,9.477447510E0
6.039441880E-1,-2.196680009E-1,2.548029184E0,1.133534813E1
6.059427300E-1,-1.238999367E-1,2.911947727E0,1.155561447E1
6.079412710E-1,3.693056107E-1,4.841674328E0,9.405621529E0
6.099398130E-1,-3.770867735E-2,3.735553265E0,8.098387718E0
6.119383550E-1,1.969230920E-1,2.586336374E0,1.172799683E1
6.139367920E-1,2.926911712E-1,3.869628429E0,7.873332500E0
6.159350210E-1,4.369417951E-2,2.864063740E0,1.371997261E1
6.179331460E-1,-4.249707982E-2,3.381211281E0,5.603629112E0
6.199312710E-1,3.405751884E-1,2.471414804E0,8.869319916E0
6.219293440E-1,1.442506462E-1,5.704185367E-1,1.315494156E1
6.239274170E-1,1.586158574E-1,1.820191860E0,1.205839729E1
6.259254900E-1,5.805939063E-2,2.591124773E0,6.542156219E0
6.279235630E-1,-3.393780887E-1,2.600701571E0,8.352172852E0
6.299216360E-1,-2.244564146E-1,2.701258183E0,1.000417137E1
6.319197090E-1,-3.393780887E-1,1.700481772E0,1.006642151E1
6.339177820E-1,-2.340332121E-1,1.149815321E0,1.213501167E1
6.359158550E-1,-6.218938828E-1,1.868075848E0,8.979453087E0
6.379139280E-1,-5.309142470E-1,2.864063740E0,8.127118111E0
6.399120000E-1,-6.889315248E-1,2.830544949E0,9.333795547E0
6.419100730E-1,-1.033696532E0,2.634220362E0,8.586804390E0
6.439081460E-1,-4.830302000E-1,4.291007996E0,1.000895977E1
6.459062190E-1,-4.590881765E-1,3.462614298E0,1.049737740E1
6.479043440E-1,-7.176619768E-1,2.801814556E0,8.529343605E0
6.499025210E-1,-3.585317135E-1,3.515286684E0,9.621099472E0
6.519007500E-1,-5.117605925E-1,6.805518270E-1,1.498890018E1
6.538989800E-1,-7.416039705E-1,1.700481772E0,9.937133789E0
6.558972090E-1,-7.703344226E-1,3.117849112E0,4.856637955E0
6.578954380E-1,-7.272387743E-1,4.152144432E0,8.084021568E0
6.598936670E-1,-4.447229803E-1,1.810615063E0,1.178066921E1
6.618918960E-1,-4.734533727E-1,2.528875589E0,8.672995567E0
6.638901250E-1,-1.813607812E-1,2.160767019E-1,1.309269238E1
6.658883550E-1,-6.889315248E-1,1.676539779E0,9.745597839E0
6.678865840E-1,-4.207809567E-1,3.304596901E0,8.682572365E0
6.698848130E-1,-6.218938828E-1,1.207276225E0,1.304001999E1
6.718830420E-1,-8.948329091E-1,2.859275341E0,5.862202644E0
6.738812710E-1,-8.277952671E-1,2.576759577E0,9.166201591E0
6.758795000E-1,-8.996213078E-1,1.939901948E0,1.061708736E1
6.778777300E-1,-8.325836658E-1,1.801038265E0,1.150773048E1
6.798759590E-1,-8.086416125E-1,1.781884670E0,1.092833328E1
6.818741880E-1,-1.392826796E0,3.323750496E0,5.752069473E0
6.838724170E-1,-5.787982345E-1,1.073200941E0,1.321719074E1
6.858706460E-1,-1.081580639E0,1.508945584E0,5.804741859E0
6.878688750E-1,-1.177348733E0,2.591723204E-1,1.459625053E1
6.898671050E-1,-1.368884802E0,2.543240786E0,4.933252811E0
6.918653860E-1,-1.378461599E0,-1.286883354E-1,1.417965984E1
6.938637190E-1,-1.139041424E0,2.011728048E0,8.237251282E0
6.958621050E-1,-1.603516579E0,9.630676508E-1,7.691372871E0
6.978605420E-1,-1.301847219E0,-5.883750916E-1,1.113423538E1
6.998590320E-1,-1.210867524E0,-5.931634903E-1,1.117733097E1
7.018575730E-1,-1.665765882E0,1.044470549E0,7.413645744E0
7.038561670E-1,-1.569997787E0,1.719635367E0,8.773551941E0
7.058547610E-1,-1.301847219E0,2.687491477E-1,1.061708736E1
7.078533550E-1,-1.603516579E0,-4.728548229E-2,1.082777691E1
7.098519480E-1,-1.268328309E0,4.076128304E-1,8.471882820E0
7.118505420E-1,-1.000177741E0,-7.894880176E-1,1.101931286E1
7.138491360E-1,-1.057638645E0,-7.607575655E-1,1.091396809E1
7.158477300E-1,-1.316212416E0,-7.128735781E-1,9.846154213E0
7.178463230E-1,-1.091157436E0,-1.162983418E0,1.060751057E1
7.198449170E-1,-9.618705511E-1,1.494580388E0,5.986701488E0
7.218435110E-1,-1.186925530E0,-1.124676228E0,1.275750351E1
7.238421050E-1,-9.235633016E-1,-9.091981053E-1,8.668207169E0
7.258406980E-1,-6.123170853E-1,8.577227592E-1,1.491228485E1
7.278390320E-1,-1.584362984E0,1.274313807E0,5.694608688E0
7.298373650E-1,-1.110311031E0,1.231218219E0,9.405621529E0
7.318356980E-1,-6.458359361E-1,2.227206230E0,8.222886086E0
7.338340320E-1,-8.230068088E-1,1.437119603E0,1.130182934E1
7.358322610E-1,-5.404910445E-1,-9.522937536E-1,1.138323212E1
7.378304380E-1,-1.334767491E-1,9.151836038E-1,1.068891335E1
7.398286150E-1,-7.559691668E-1,4.076128304E-1,7.542932510E0
7.418267920E-1,-2.627636492E-1,-1.062427044E0,1.145984650E1
7.438249690E-1,-1.238999367E-1,8.289923668E-1,6.666654587E0
7.458231460E-1,-1.430535465E-1,1.164180517E0,8.874108315E0
7.478213230E-1,-5.686229095E-2,8.337807655E-1,9.324218750E0
7.498195000E-1,2.064998895E-1,5.985504249E-4,9.860519409E0
7.518176780E-1,1.921346933E-1,-3.020884037E0,1.160349846E1
7.538158550E-1,3.309983909E-1,-9.044097066E-1,1.169926643E1
7.558140320E-1,1.155202314E-1,4.650736749E-1,6.585251808E0
7.578122610E-1,-5.686229095E-2,5.895721912E-1,9.884461403E0
7.598105420E-1,2.879027426E-1,1.044470549E0,6.139930248E0
7.618088750E-1,4.076128304E-1,-1.244386315E0,1.405516148E1
7.638072090E-1,6.709750295E-1,-2.182913303E0,1.153646088E1
7.658055940E-1,4.076128304E-1,-1.186925530E0,1.035372543E1
7.678039800E-1,2.543839216E-1,-2.340332121E-1,7.432799339E0
7.698023650E-1,4.219780564E-1,1.825578809E-1,8.122329712E0
7.718007500E-1,3.693056107E-1,-1.737591863E0,9.740809441E0
7.737991360E-1,3.788824081E-1,-3.174112797E0,1.383010578E1
7.757975210E-1,2.591723204E-1,8.002619147E-1,3.621230125E0
7.777959070E-1,7.667431235E-1,-1.238999367E-1,1.489313126E1
7.797942920E-1,5.805939063E-2,-1.225232720E0,6.934805393E0
7.817926780E-1,5.895721912E-1,-2.575562477E0,1.211106968E1
7.837910630E-1,2.687491477E-1,-1.996165633E0,9.228450775E0
7.857894480E-1,3.166331649E-1,-1.397615194E0,9.807847023E0
7.877878340E-1,2.017114908E-1,-1.598728180E0,8.376114845E0
7.897862190E-1,-1.909375787E-1,-3.154360652E-1,6.757634163E0
7.917846050E-1,2.448071241E-1,-1.593939781E0,1.338957310E1
7.937829900E-1,1.490390599E-1,-1.886032343E0,7.734468460E0
7.957811150E-1,4.938040972E-1,-1.737591863E0,1.270961952E1
7.977792400E-1,-2.334346622E-2,-2.925115824E0,1.111029339E1
7.997773650E-1,-1.765723825E-1,-4.734533727E-1,5.723339081E0
8.017754900E-1,2.735375464E-1,-2.436698675E0,1.307353878E1
8.037736150E-1,-3.872621357E-1,-8.373720646E-1,8.155848503E0
8.057717400E-1,-9.516951442E-2,-1.115099430E0,9.506177902E0
8.077698650E-1,5.386953708E-3,-1.871667147E0,1.041118622E1
8.097679900E-1,4.369417951E-2,-2.273893118E0,8.577227592E0
8.117661150E-1,4.124012291E-1,-4.117428303E0,1.339436150E1
8.137642400E-1,-1.855506375E-2,-1.435922503E0,6.609193802E0
8.157623650E-1,3.405751884E-1,-8.559270948E-2,1.197699356E1
8.177604900E-1,-2.723404467E-1,-1.919551253E0,4.837484360E0
8.197586670E-1,3.411737457E-2,-8.469488621E-1,1.170405483E1
8.217568960E-1,2.543839216E-1,-1.732803464E0,1.303044319E1
8.237551780E-1,-1.855506375E-2,-1.780687571E0,1.074637413E1
8.257535110E-1,1.490390599E-1,-9.570821524E-1,9.190143585E0
8.277518960E-1,-3.872621357E-1,1.628655672E0,5.723339081E0
8.297503340E-1,-4.728548229E-2,1.125873327E0,9.017760277E0
8.317487710E-1,1.203086376E-1,-2.369661093E0,1.109113979E1
8.337472090E-1,5.464765429E-1,-1.526902080E0,1.095706367E1
8.357456460E-1,6.374561787E-1,1.532887697E0,9.549273491E0
8.377440840E-1,7.140706778E-1,1.834557056E0,1.105762100E1
8.397425210E-1,6.709750295E-1,1.274313807E0,9.008183479E0
8.417409590E-1,8.672995567E-1,1.307832718E0,1.026753426E1
8.437393960E-1,1.140238523E0,7.721300423E-2,1.176151562E1
8.457378340E-1,7.236474752E-1,1.810615063E0,5.287594318E0
8.477361150E-1,8.050503135E-1,-6.362590790E-1,1.078468132E1
8.497343960E-1,7.667431235E-1,-4.542997777E-1,8.845377922E0
8.517326780E-1,1.288679123E0,-1.143829823E0,1.441429138E1
8.537309070E-1,6.613982320E-1,2.433107376E0,5.005078793E0
8.557291360E-1,6.566098332E-1,-1.397615194E0,1.152209568E1
8.577273650E-1,5.033808947E-1,-2.269104719E0,1.023401546E1
8.597255940E-1,4.124012291E-1,-2.412756681E0,1.021486187E1
8.617238230E-1,2.543839216E-1,-1.765723825E-1,6.063315868E0
8.637220530E-1,2.352303118E-1,-7.080851793E-1,1.165138245E1
8.657202820E-1,-5.686229095E-2,-5.787982345E-1,8.893261909E0
8.677185110E-1,2.783259451E-1,-9.618705511E-1,1.273356152E1
8.697167400E-1,-4.728548229E-2,5.985504249E-4,9.558850288E0
8.717149690E-1,-3.776853085E-1,1.451484799E0,6.494272232E0
8.737131980E-1,-2.005143911E-1,1.017535757E-2,1.054047298E1
8.757114280E-1,-2.340332121E-1,-1.383249998E0,1.215416527E1
8.777096570E-1,-3.489548862E-1,1.011550203E-1,9.501389503E0
8.797078860E-1,-2.340332121E-1,4.842272997E-1,6.676231384E0
8.817061150E-1,2.112883031E-1,-8.469488621E-1,1.240795040E1
8.837043440E-1,-9.038111567E-2,-1.033696532E0,6.843825340E0
8.857025730E-1,5.273229480E-1,-2.120664120E0,1.400727749E1
8.877008030E-1,3.890577704E-2,-1.009754539E0,7.844601631E0
8.896990320E-1,-2.627636492E-1,-1.191115379E-1,7.844601631E0
8.916972610E-1,3.411737457E-2,-9.810241461E-1,1.177588081E1
8.936954900E-1,2.454056777E-2,-1.493383288E0,8.232462883E0
8.956937190E-1,-1.047463268E-1,-3.346495390E0,1.340872669E1
8.976919480E-1,2.932897024E-2,-1.349731207E0,1.218768406E1
8.996901780E-1,-3.292027488E-2,1.178545833E0,6.355408192E0
9.016884070E-1,-4.351461530E-1,-2.427121878E0,1.076552773E1
9.036866880E-1,-6.410474777E-1,2.739565372E0,3.645172119E0
9.056850210E-1,2.112883031E-1,1.825578809E-1,1.439992619E1
9.076834070E-1,1.394622475E-1,-1.972223639E0,1.019570827E1
9.096818440E-1,-4.112041295E-1,-1.660977483E0,8.850166321E0
9.116803340E-1,5.985504249E-4,5.847837925E-1,9.329007149E0
9.136788750E-1,2.256535143E-1,-7.559691668E-1,1.310226917E1
9.156774690E-1,-2.914940715E-1,-7.601590455E-2,4.210203648E0
9.176760630E-1,3.357867897E-1,-2.355295897E0,1.331295872E1
9.196746570E-1,4.315548539E-1,-8.230068088E-1,8.342596054E0
9.216732500E-1,1.681926697E-1,-1.286883354E-1,9.692925453E0
9.236718440E-1,4.698620737E-1,-2.944269657E0,1.176630402E1
9.256704380E-1,-1.855506375E-2,1.729810685E-1,5.646724701E0
9.276690320E-1,3.214215636E-1,-8.134300113E-1,1.356195545E1
9.296676250E-1,4.842272997E-1,-8.996213078E-1,7.643488884E0
9.316662190E-1,2.448071241E-1,-1.244386315E0,1.165138245E1
9.336648130E-1,8.200141042E-2,-5.165489912E-1,1.079425812E1
9.356632500E-1,-8.559270948E-2,-9.091981053E-1,6.561309814E0
9.376615840E-1,3.884592354E-1,-1.622071713E-1,6.709750175E0
9.396599170E-1,7.763199210E-1,-1.526902080E0,1.570237160E1
9.416582500E-1,3.788824081E-1,4.554968774E-1,6.331466198E0
9.436565840E-1,9.343371987E-1,6.805518270E-1,1.185728359E1
9.456549170E-1,7.715315223E-1,5.081692934E-1,8.902838707E0
9.476532500E-1,5.847837925E-1,-1.469441295E0,9.372102737E0
9.496515840E-1,8.194155097E-1,1.873462796E-1,8.179790497E0
9.516499690E-1,9.151836038E-1,1.149815321E0,9.745597839E0
9.536484070E-1,7.523778677E-1,-9.379284978E-1,1.285805988E1
9.556468960E-1,7.571662664E-1,-1.129464626E0,9.180566788E0
9.576454380E-1,7.140706778E-1,-4.189853091E-3,1.122521496E1
9.596440320E-1,5.273229480E-1,1.853710651E0,7.504625320E0
9.616426250E-1,1.203086376E-1,-1.162983418E0,8.510190010E0
9.636412190E-1,4.171896577E-1,-2.139817715E0,1.387320137E1
9.656398130E-1,4.363432527E-1,2.160767019E-1,5.412093163E0
9.676384070E-1,2.974795699E-1,2.448071241E-1,1.129704094E1
9.696370000E-1,1.873462796E-1,2.735375464E-1,7.360973358E0
9.716355940E-1,-1.855506375E-2,-6.985083222E-1,1.117733097E1
9.736341880E-1,2.639607489E-1,-7.122749835E-2,8.874108315E0
9.756327820E-1,7.763199210E-1,-9.522937536E-1,1.388756657E1
9.776313750E-1,-3.393780887E-1,-8.469488621E-1,5.617994308E0
9.796298650E-1,4.938040972E-1,-6.314706802E-1,1.335605431E1
9.816283550E-1,1.442506462E-1,-4.303577542E-1,6.274005413E0
9.836268440E-1,3.022679687E-1,-1.196502328E0,1.332253551E1
9.856252300E-1,1.059434265E-1,2.351704597E0,2.993949175E0
9.876236150E-1,6.087257862E-1,-7.176619768E-1,1.268088913E1
9.896220000E-1,7.715315223E-1,-3.968389332E-1,1.089002609E1
9.916203860E-1,4.267664552E-1,-1.579574585E0,1.313099957E1
9.936187710E-1,6.757634282E-1,-1.526303589E-1,7.629123688E0
9.956171570E-1,4.267664552E-1,1.365293503E0,7.557297707E0
9.976155420E-1,3.693056107E-1,-1.986588836E0,8.979453087E0
9.996139280E-1,7.284358740E-1,-2.546832085E0,1.340393829E1
1.001612313E0,8.816647530E-1,8.242039084E-1,6.925228596E0
1.003610698E0,6.566098332E-1,1.188122630E0,8.026560783E0
1.005609032E0,3.501519859E-1,-2.149394512E0,1.136886692E1
1.007607261E0,8.385691643E-1,-8.373720646E-1,6.197391033E0
1.009605490E0,1.092354536E0,-2.522890091E0,1.705748940E1
1.011603719E0,2.304419130E-1,-1.483806491E0,8.672995567E0
1.013601948E0,2.208651006E-1,2.926911712E-1,7.518990517E0
1.015600178E0,6.230909824E-1,1.805826664E0,1.063624096E1
1.017598407E0,-4.542997777E-1,-7.224503756E-1,7.504625320E0
1.019596636E0,3.597288132E-1,4.369417951E-2,1.071285534E1
1.021594865E0,3.788824081E-1,-5.452794433E-1,1.280538750E1
1.023593094E0,2.160767019E-1,4.794389009E-1,5.541379929E0
1.025591323E0,7.380126715E-1,-1.153406620E0,1.346618748E1
1.027589553E0,7.140706778E-1,1.168969035E0,6.963535786E0
1.029587782E0,5.560533404E-1,4.985924959E-1,9.338583946E0
1.031586011E0,6.326677799E-1,3.980360329E-1,1.043991661E1
1.033584240E0,8.146271110E-1,-5.021837950E-1,1.402164268E1
1.035582469E0,2.495955229E-1,1.398812294E0,8.692149162E0
1.037580698E0,3.788824081E-1,2.715623379E0,7.542932510E0
1.039578928E0,1.490390599E-1,2.275090218E0,6.652289391E0
1.041577157E0,1.010951638E0,1.245583415E0,1.177588081E1
1.043575386E0,7.906851172E-1,-1.297058821E0,1.257075596E1
1.045573667E0,9.726444483E-1,1.681926697E-1,1.114381218E1
1.047572000E0,7.332242727E-1,2.275090218E0,6.499060631E0
1.049570386E0,6.470330358E-1,8.912416101E-1,1.129225254E1
1.051568823E0,8.050503135E-1,1.872864246E0,7.159860134E0
1.053567313E0,3.262099922E-1,-4.064157307E-1,1.143111610E1
1.055565855E0,3.453635871E-1,1.082777739E0,1.047343540E1
1.057564448E0,6.997054219E-1,3.453037500E0,9.008183479E0
1.059563042E0,-3.681085110E-1,-4.973953962E-1,1.097621727E1
1.061561636E0,1.825578809E-1,1.298255920E0,7.949946880E0
1.063560230E0,4.507084787E-1,1.226429820E0,9.745597839E0
1.065558823E0,1.490390599E-1,-5.883750916E-1,1.165138245E1
1.067557053E0,-2.334346622E-2,-2.579752207E-1,1.044949341E1
1.069555178E0,-4.249707982E-2,8.577227592E-1,7.787140846E0
1.071553250E0,1.777694821E-1,2.969408751E0,6.633135796E0
1.073551323E0,-8.978256024E-3,1.705270171E0,1.208712769E1
1.075549396E0,-4.399345517E-1,1.638232470E0,9.894038200E0
1.077547469E0,-7.942764163E-1,-6.218938828E-1,1.106719780E1
1.079545542E0,-3.968389332E-1,1.872864246E0,1.032978344E1
1.081543615E0,-8.804676533E-1,3.692457676E0,6.111199856E0
1.083541688E0,-1.038484931E0,1.250371814E0,9.975440979E0
1.085539813E0,-3.537433147E-1,6.087257862E-1,1.079904652E1
1.087537990E0,-2.962824702E-1,9.582792521E-1,1.166095924E1
1.089536219E0,-1.182137132E0,2.639607489E-1,9.386467934E0
1.091534500E0,-7.990648150E-1,1.805826664E0,5.843049049E0
1.093532834E0,-5.644330382E-1,2.160168409E0,6.939593792E0
1.095531219E0,-1.311424017E0,-1.091157436E0,1.056920338E1
1.097529657E0,-7.846996188E-1,-6.218938828E-1,9.779116631E0
1.099528094E0,-5.835866928E-1,-6.554127336E-1,1.181897640E1
1.101526532E0,-9.187749028E-1,-1.158195019E0,1.046864700E1
1.103524969E0,-1.191713929E0,-1.311424017E0,1.234570122E1
1.105523407E0,-1.704073071E0,6.757634282E-1,6.810306549E0
1.107521844E0,-1.708861470E0,-5.452794433E-1,1.142632771E1
1.109520282E0,-1.421557307E0,1.561618090E0,9.381679535E0
1.111518615E0,-1.680131078E0,2.400187254E-1,1.256117916E1
1.113516792E0,-1.775899053E0,1.006163239E0,8.993818283E0
1.115514969E0,-1.680131078E0,1.825578809E-1,1.173278522E1
1.117513146E0,-1.938704848E0,2.682104349E0,6.489483833E0
1.119511323E0,-2.182913303E0,9.391255975E-1,1.039203262E1
1.121509500E0,-2.158971310E0,4.650736749E-1,8.529343605E0
1.123507678E0,-1.938704848E0,-1.048061848E0,1.266173553E1
1.125505855E0,-1.373673201E0,9.636662155E-2,1.190516758E1
1.127504084E0,-2.513313293E0,-5.357026458E-1,8.893261909E0
1.129502365E0,-1.785475969E0,-1.948281646E0,1.144548130E1
1.131500698E0,-2.067991734E0,-1.660977483E0,1.206318569E1
1.133499084E0,-1.871667147E0,2.208651006E-1,7.691372871E0
1.135497521E0,-1.996165633E0,-8.565256596E-1,1.055483818E1
1.137496011E0,-1.775899053E0,-6.745663285E-1,6.824671745E0
1.139494553E0,-1.857301950E0,1.398812294E0,9.376891136E0
1.141493146E0,-2.015319347E0,4.411316514E-1,5.230133533E0
1.143491740E0,-1.560420990E0,-2.575562477E0,8.452729225E0
1.145490334E0,-1.119887829E0,-2.513313293E0,8.529343605E0
1.147488928E0,-1.095945835E0,-4.423886299E0,1.213501167E1
1.149487521E0,-8.086416125E-1,-4.826112270E0,8.500613213E0
1.151486011E0,-7.272387743E-1,-3.739144564E0,8.572439194E0
1.153484292E0,-4.686649740E-1,-4.912303448E0,7.677007675E0
1.155482573E0,-1.047463268E-1,-5.525218964E0,9.649829865E0
1.157480750E0,3.980360329E-1,-4.371213913E0,1.091396809E1
1.159478928E0,5.081692934E-1,-4.021660328E0,1.154603767E1
1.161477105E0,-1.191115379E-1,-4.988917828E0,1.178066921E1
1.163475282E0,6.278793812E-1,-3.231573820E0,1.171363163E1
1.165473459E0,5.225345492E-1,-2.915539026E0,9.937133789E0
1.167471636E0,3.788824081E-1,-1.680131078E0,7.657854080E0
1.169469813E0,8.194155097E-1,-1.593939781E0,9.391256332E0
1.171467990E0,8.289923668E-1,-2.518101692E0,1.335126591E1
1.173466167E0,7.140706778E-1,-8.804676533E-1,9.453505516E0
1.175464344E0,1.101931334E0,-2.494159698E0,1.215895367E1
1.177462521E0,9.630676508E-1,1.441908002E0,5.412093163E0
1.179460698E0,1.250371814E0,-8.613140583E-1,1.135450172E1
1.181458875E0,1.374870300E0,-4.495113790E-1,8.447940826E0
1.183457053E0,2.050035238E0,-1.014542937E0,1.147900009E1
1.185455230E0,1.829768658E0,-2.154182911E0,1.095227528E1
1.187453407E0,1.810615063E0,-9.379284978E-1,8.926780701E0
1.189451584E0,1.848922253E0,-1.517325282E0,9.970652580E0
1.191449761E0,1.757942557E0,-8.852560520E-1,5.206191540E0
1.193447938E0,2.088342428E0,-2.963423252E0,1.210628128E1
1.195446115E0,2.040458441E0,-2.034472942E0,6.422446251E0
1.197444292E0,2.045246840E0,-4.371213913E0,1.111029339E1
1.199442469E0,2.026093245E0,-3.389590979E0,1.022443867E1
1.201440646E0,1.465849996E0,-1.780687571E0,9.908403397E0
1.203438823E0,1.532887697E0,-1.086369038E0,7.260416508E0
1.205437000E0,1.240795016E0,-3.145382404E0,1.049737740E1
1.207435178E0,1.326986313E0,-2.044049740E0,9.956287384E0
1.209433355E0,1.202487826E0,-2.005742550E0,7.796717644E0
1.211431532E0,1.307832718E0,-1.919551253E0,1.044470501E1
1.213429709E0,1.236006618E0,-1.977012038E0,1.002811337E1
1.215427886E0,1.140238523E0,-2.154182911E0,1.351885986E1
1.217426063E0,8.194155097E-1,2.639607489E-1,8.127118111E0
1.219424240E0,5.081692934E-1,-2.355295897E0,1.174715042E1
1.221422469E0,-1.286883354E-1,-1.598728180E0,9.716867447E0
1.223420750E0,-2.292448133E-1,-4.926069975E-1,6.427234650E0
1.225419032E0,-8.080431074E-2,-2.312200308E0,1.235048962E1
1.227417313E0,-5.596446395E-1,-2.882020235E0,5.919663906E0
1.229415594E0,-1.622071713E-1,-5.937021732E0,1.581729317E1
1.231413875E0,-5.213374496E-1,-4.280233860E0,8.874108315E0
1.233412157E0,-7.032967210E-1,-3.973776340E0,1.054526138E1
1.235410438E0,-1.234809518E0,-4.380790710E0,7.739256859E0
1.237408771E0,-1.220444322E0,-4.471770287E0,8.184578896E0
1.239407157E0,-8.661024570E-1,-5.869984150E0,1.169926643E1
1.241405542E0,-1.072003841E0,-5.922656536E0,1.005684471E1
1.243403980E0,-1.230021119E0,-5.649717331E0,7.562086105E0
1.245402417E0,-6.889315248E-1,-5.865195751E0,7.940370083E0
1.247400855E0,-4.255693555E-1,-5.989694118E0,9.673771858E0
1.249399292E0,-4.878185987E-1,-5.132569790E0,1.076552773E1
1.251397730E0,-8.373720646E-1,-5.994482517E0,1.138802052E1
1.253396167E0,-1.009754539E0,-3.748721361E0,9.194931984E0
1.255394605E0,-9.522937536E-1,-3.739144564E0,8.582015991E0
1.257392990E0,-9.475052953E-1,-3.739144564E0,1.038724422E1
1.259391063E0,-1.234809518E0,-4.859631062E0,9.357737541E0
1.261389136E0,-1.019331336E0,-5.448604584E0,1.001374817E1
1.263387209E0,-5.357026458E-1,-6.506841660E0,1.083735371E1
1.265385282E0,-8.086416125E-1,-4.797381878E0,6.360196590E0
1.267383355E0,-2.675520480E-1,-6.344036102E0,1.067933655E1
1.269381428E0,-5.979518890E-1,-6.525995255E0,1.213022327E1
1.271379500E0,-6.697779298E-1,-5.261856556E0,1.017176628E1
1.273377573E0,-1.091157436E0,-5.127781391E0,1.114381218E1
1.275375646E0,-1.613093376E0,-4.763862610E0,6.508637428E0
1.277373771E0,-1.297058821E0,-5.855618954E0,9.156624794E0
1.279371948E0,-1.660977483E0,-6.899490833E0,1.005684471E1
1.281370178E0,-1.321000814E0,-5.903502941E0,9.032125473E0
1.283368407E0,-1.062427044E0,-7.100603580E0,1.036809063E1
1.285366688E0,-1.019331336E0,-7.905055523E0,8.567650795E0
1.287365021E0,-5.165489912E-1,-8.403049469E0,1.122521496E1
1.289363407E0,-1.162983418E0,-9.092579842E0,9.271546364E0
1.291361792E0,-8.134300113E-1,-8.652046204E0,7.835024834E0
1.293360178E0,-5.931634903E-1,-8.398261070E0,9.874884605E0
1.295358563E0,-4.189853091E-3,-9.729436874E0,1.090917969E1
1.297356948E0,-3.968389332E-1,-8.283339500E0,1.224993324E1
1.299355334E0,-4.542997777E-1,-7.612962723E0,9.132682800E0
1.301353407E0,-5.787982345E-1,-7.296928406E0,8.500613213E0
1.303351428E0,-9.516951442E-2,-7.076661587E0,1.142632771E1
1.305349448E0,-9.516951442E-2,-5.362413406E0,8.912415504E0
1.307347469E0,-6.889315248E-1,-5.620986938E0,8.342596054E0
1.309345490E0,-3.441664875E-1,-5.405508995E0,1.178545761E1
1.311343511E0,-1.234809518E0,-5.333683014E0,8.907627106E0
1.313341532E0,-7.799112201E-1,-7.450157166E0,1.045428181E1
1.315339605E0,-2.914940715E-1,-7.411849976E0,1.016218948E1
1.317337730E0,2.454056777E-2,-8.987235069E0,1.086608410E1
1.319335907E0,-1.430535465E-1,-8.628104210E0,9.640253067E0
1.321334136E0,-2.340332121E-1,-7.301716805E0,7.782352448E0
1.323332417E0,3.022679687E-1,-7.555501938E0,1.006163311E1
1.325330698E0,2.735375464E-1,-7.517194748E0,1.157955647E1
1.327328980E0,5.985504249E-4,-5.980117321E0,7.882909298E0
1.329327261E0,4.459200799E-1,-7.545925140E0,1.046864700E1
1.331325542E0,4.076128304E-1,-6.616974831E0,7.969100475E0
1.333323823E0,-1.717839688E-1,-6.152499676E0,1.037287903E1
1.335322105E0,4.554968774E-1,-7.493252754E0,1.026274586E1
1.337320386E0,7.092822790E-1,-5.434239388E0,7.887697697E0
1.339318511E0,7.428010702E-1,-7.383119583E0,9.812635422E0
1.341316532E0,1.025316834E0,-7.603385925E0,1.020528507E1
1.343314553E0,1.523310781E0,-7.589020729E0,1.015261269E1
1.345312573E0,8.146271110E-1,-7.474099159E0,9.582792282E0
1.347310594E0,1.001374841E0,-7.095815182E0,1.030584145E1
1.349308615E0,2.783259451E-1,-6.190806866E0,8.984241486E0
1.351306636E0,1.729810685E-1,-6.870760441E0,9.247604370E0
1.353304657E0,5.985504249E-4,-6.688800812E0,1.060272217E1
1.355302678E0,-1.717839688E-1,-6.329670906E0,9.630676270E0
1.357300698E0,3.357867897E-1,-7.220313549E0,1.143590450E1
1.359298719E0,-8.996213078E-1,-5.486911774E0,9.300276756E0
1.361296740E0,-4.399345517E-1,-5.079897404E0,9.894038200E0
1.363294761E0,-4.064157307E-1,-5.941810131E0,9.740809441E0
1.365292782E0,-1.957259923E-1,-6.162076473E0,1.007599831E1
1.367290855E0,5.985504249E-4,-6.731896400E0,1.057399178E1
1.369288980E0,1.107318252E-1,-5.960963726E0,8.428787231E0
1.371287157E0,-2.436100245E-1,-5.855618954E0,8.491036415E0
1.373285386E0,1.394622475E-1,-6.971316814E0,1.061229897E1
1.375283667E0,5.656301379E-1,-6.794146061E0,9.415198326E0
1.377282000E0,7.715315223E-1,-7.306505203E0,1.074637413E1
1.379280334E0,2.256535143E-1,-6.276998520E0,9.884461403E0
1.381278667E0,5.225345492E-1,-6.377554893E0,8.768763542E0
1.383277000E0,2.112883031E-1,-5.199607372E0,9.419986725E0
1.385275334E0,5.704185367E-1,-5.276222229E0,1.014303589E1
1.387273667E0,8.385691643E-1,-5.099050999E0,8.979453087E0
1.389272000E0,8.864531517E-1,-5.156511784E0,1.018134308E1
1.391270334E0,7.380126715E-1,-5.084685802E0,8.725667953E0
1.393268563E0,7.667431235E-1,-5.439027786E0,9.846154213E0
1.395266792E0,1.331774712E0,-6.138134480E0,1.156997967E1
1.397264813E0,1.398812294E0,-5.491700172E0,9.664195061E0
1.399262834E0,8.816647530E-1,-5.151723385E0,1.002811337E1
1.401260855E0,8.194155097E-1,-5.462969780E0,9.831789017E0
1.403258875E0,2.543839216E-1,-4.510077477E0,8.677783966E0
1.405256896E0,-1.376665942E-2,-4.332906723E0,9.688137054E0
1.407254917E0,8.289923668E-1,-4.711190224E0,1.061229897E1
1.409252938E0,9.056068063E-1,-5.199607372E0,1.089481449E1
1.411250959E0,4.076128304E-1,-5.228337765E0,1.067454815E1
1.413248980E0,6.949170232E-1,-4.447828293E0,9.827000618E0
1.415247000E0,1.020528436E0,-4.380790710E0,9.166201591E0
1.417245021E0,8.720879555E-1,-4.404732704E0,9.965864182E0
1.419243042E0,9.917980433E-1,-4.074332714E0,9.783905029E0
1.421241063E0,1.058835745E0,-4.050390720E0,9.688137054E0
1.423239084E0,1.049258947E0,-3.782240152E0,8.979453087E0
1.425237105E0,1.374870300E0,-4.059967518E0,9.099164009E0
1.427235125E0,1.623867273E0,-3.983353138E0,9.453505516E0
1.429233146E0,1.528099179E0,-3.767874956E0,9.510966301E0
1.431231167E0,1.432331204E0,-3.332130194E0,9.132682800E0
1.433229240E0,1.485003591E0,-3.274669409E0,9.487024307E0
1.435227365E0,1.556829691E0,-3.212420225E0,9.999382973E0
1.437225542E0,1.504157186E0,-3.131017208E0,9.822212219E0
1.439223771E0,1.556829691E0,-3.092710018E0,9.649829865E0
1.441222053E0,1.537676096E0,-3.131017208E0,9.621099472E0
1.443220386E0,1.465849996E0,-2.987365246E0,9.788693428E0
1.445218771E0,1.590348482E0,-2.977788448E0,9.913191795E0
1.447217157E0,1.547252893E0,-2.977788448E0,9.870096207E0
1.449215542E0,1.475426793E0,-2.929904222E0,9.697713852E0
1.451213928E0,4.602852762E-1,-8.086416125E-1,9.956287384E0
1.453212313E0,-3.537433147E-1,8.577227592E-1,9.884461403E0
1.455210698E0,-1.376665942E-2,-2.244564146E-1,9.817423820E0
1.457209084E0,-2.005143911E-1,2.879027426E-1,9.803058624E0
1.459207469E0,-3.250128925E-1,4.369417951E-2,9.908403397E0
1.461205855E0,-3.728969097E-1,1.107318252E-1,1.008557510E1
1.463204240E0,-4.830302000E-1,1.298854351E-1,1.016218948E1
1.465202469E0,-5.452794433E-1,1.155202314E-1,1.013824749E1
1.467200594E0,-5.835866928E-1,-1.143231317E-1,9.994594574E0
1.469198615E0,-7.032967210E-1,-7.799112201E-1,9.846154213E0
1.471196480E0,-7.272387743E-1,-9.666589499E-1,9.793481827E0
1.473194344E0,-5.931634903E-1,-4.638765752E-1,9.654618263E0
1.475192209E0,-5.021837950E-1,7.721300423E-2,9.549273491E0
1.477190073E0,-3.968389332E-1,4.985924959E-1,9.606734276E0
1.479187938E0,-3.154360652E-1,6.326677799E-1,9.573215485E0
1.481185855E0,-2.340332121E-1,6.661866307E-1,9.501389503E0
1.483183823E0,-1.813607812E-1,5.799953341E-1,9.525331497E0
1.485181844E0,-1.286883354E-1,5.033808947E-1,9.673771858E0
1.487179969E0,-4.189853091E-3,4.363432527E-1,9.850942612E0
1.489178198E0,5.327098817E-2,4.890156984E-1,9.750386238E0
1.491176532E0,1.203086376E-1,4.554968774E-1,9.592369080E0
1.493174969E0,2.017114908E-1,5.273229480E-1,9.549273491E0
1.495173511E0,2.879027426E-1,5.895721912E-1,9.582792282E0
1.497172105E0,3.309983909E-1,6.661866307E-1,9.697713852E0
1.499170750E0,3.597288132E-1,7.044938207E-1,9.731232643E0
1.501169396E0,3.405751884E-1,6.374561787E-1,9.654618263E0
1.503168042E0,3.453635871E-1,6.326677799E-1,9.587580681E0
1.505166688E0,3.214215636E-1,6.087257862E-1,9.520543098E0
1.507165334E0,2.400187254E-1,6.087257862E-1,9.611522675E0
1.509163928E0,1.969230920E-1,6.135141850E-1,9.712079048E0
1.511162157E0,1.538274586E-1,5.943605900E-1,9.683348656E0
1.513160386E0,8.678980917E-2,6.087257862E-1,9.668983459E0
1.515158615E0,2.454056777E-2,6.183025837E-1,9.611522675E0
1.517156844E0,-5.686229095E-2,6.326677799E-1,9.664195061E0
1.519155073E0,-1.095347255E-1,6.278793812E-1,9.759963036E0
1.521153303E0,-1.813607812E-1,6.278793812E-1,9.779116631E0
1.523151532E0,-2.244564146E-1,6.278793812E-1,9.707290649E0
1.525149761E0,-2.675520480E-1,6.422445774E-1,9.678560257E0
1.527147990E0,-2.819172442E-1,6.230909824E-1,9.645041466E0
1.529146219E0,-2.867056429E-1,6.326677799E-1,9.688137054E0
1.531144448E0,-2.819172442E-1,5.847837925E-1,9.736021042E0
1.533142678E0,-2.627636492E-1,5.560533404E-1,9.783905029E0
1.535140907E0,-2.340332121E-1,5.464765429E-1,9.822212219E0
1.537139136E0,-2.148796022E-1,5.129576921E-1,9.822212219E0
1.539137365E0,-1.861491799E-1,4.794389009E-1,9.860519409E0
1.541135594E0,-1.238999367E-1,4.459200799E-1,9.903614998E0
1.543133823E0,-7.601590455E-2,4.171896577E-1,9.798270226E0
1.545132053E0,-1.376665942E-2,3.884592354E-1,9.630676270E0
