"Time (s)","Acceleration x (m/s^2)","Acceleration y (m/s^2)","Acceleration z (m/s^2)"
1.542381600E-2,-3.292027488E-2,7.242459804E-2,9.544485092E0
1.742183700E-2,-4.249707982E-2,9.636662155E-2,9.544485092E0
1.941985800E-2,-5.207388848E-2,9.157821536E-2,9.587580681E0
2.141787800E-2,-5.686229095E-2,7.721300423E-2,9.673771858E0
2.341589900E-2,-6.643909961E-2,1.011550203E-1,9.740809441E0
2.541392000E-2,-7.122749835E-2,1.107318252E-1,9.817423820E0
2.741194100E-2,-1.717839688E-1,4.848258570E-2,9.769539833E0
2.941001400E-2,-1.717839688E-1,1.155202314E-1,1.002811337E1
3.140813900E-2,5.386953708E-3,2.112883031E-1,1.033457184E1
3.340631600E-2,-4.249707982E-2,1.777694821E-1,9.917980194E0
3.540454500E-2,-7.122749835E-2,2.064998895E-1,9.831789017E0
3.740282600E-2,-1.376665942E-2,2.543839216E-1,1.008557510E1
3.940116000E-2,1.496376097E-2,2.831143439E-1,1.022443867E1
4.139954500E-2,2.454056777E-2,2.926911712E-1,1.028668785E1
4.339798300E-2,2.932897024E-2,3.118447661E-1,1.037766743E1
4.539647200E-2,3.890577704E-2,3.070563674E-1,1.041118622E1
4.739496200E-2,4.369417951E-2,2.974795699E-1,1.049258900E1
4.939345100E-2,2.454056777E-2,3.166331649E-1,1.055483818E1
5.139194100E-2,1.496376097E-2,3.501519859E-1,1.057399178E1
5.339043100E-2,-2.334346622E-2,3.836708367E-1,1.053568459E1
5.538876400E-2,-8.559270948E-2,4.411316514E-1,1.053089619E1
5.738688900E-2,-9.516951442E-2,4.842272997E-1,1.057399178E1
5.938501400E-2,-1.143231317E-1,5.368997455E-1,1.055962658E1
6.138313900E-2,-1.574187577E-1,5.799953341E-1,1.056441498E1
6.338126400E-2,-2.292448133E-1,6.278793812E-1,1.055004978E1
6.537938900E-2,-2.579752207E-1,6.230909824E-1,1.057878017E1
6.737756600E-2,-2.675520480E-1,5.799953341E-1,1.056441498E1
6.937579500E-2,-2.531868219E-1,6.135141850E-1,1.058356857E1
7.137407600E-2,-2.579752207E-1,6.230909824E-1,1.056441498E1
7.337241000E-2,-2.148796022E-1,6.661866307E-1,1.058356857E1
7.537079500E-2,-1.813607812E-1,6.374561787E-1,1.061229897E1
7.736923300E-2,-1.909375787E-1,6.470330358E-1,1.060751057E1
7.936772200E-2,-1.861491799E-1,6.326677799E-1,1.059793377E1
8.136626400E-2,-2.005143911E-1,6.613982320E-1,1.058835697E1
8.336485800E-2,-2.053027898E-1,6.997054219E-1,1.058356857E1
8.536350300E-2,-2.100912035E-1,7.140706778E-1,1.058835697E1
8.736214900E-2,-2.292448133E-1,7.667431235E-1,1.053568459E1
8.936079500E-2,-2.196680009E-1,8.050503135E-1,1.045428181E1
9.135944100E-2,-2.531868219E-1,8.672995567E-1,1.042555141E1
9.335798300E-2,-2.675520480E-1,9.008184075E-1,1.037766743E1
9.535610800E-2,-2.867056429E-1,8.864531517E-1,1.032978344E1
9.735423300E-2,-3.202244639E-1,9.103952050E-1,1.029626465E1
9.935220100E-2,-3.298012912E-1,9.391255975E-1,1.020528507E1
1.013501700E-1,-3.872621357E-1,1.058835745E0,1.017655468E1
1.033481390E-1,-4.973953962E-1,1.154603720E0,1.015740108E1
1.053461080E-1,-5.309142470E-1,1.183334231E0,1.019091988E1
1.073440760E-1,-5.117605925E-1,1.307832718E0,1.022922707E1
1.093420450E-1,-4.303577542E-1,1.451484799E0,1.018134308E1
1.113400140E-1,-3.202244639E-1,1.643020868E0,1.026753426E1
1.133379830E-1,-2.148796022E-1,1.858499050E0,1.043991661E1
1.153359510E-1,-2.100912035E-1,2.088342428E0,1.042076302E1
1.173339200E-1,-2.483984232E-1,2.275090218E0,1.043991661E1
1.193318890E-1,-3.633201122E-1,2.773084164E0,1.035851383E1
1.213298580E-1,-4.207809567E-1,2.868852139E0,1.027711105E1
1.233278260E-1,-5.021837950E-1,2.892794132E0,1.039203262E1
1.253258470E-1,-4.638765752E-1,2.720411777E0,1.055004978E1
1.273239200E-1,-4.830302000E-1,2.691681147E0,1.051653099E1
1.293220450E-1,-5.404910445E-1,2.342127800E0,1.048301220E1
1.313201700E-1,-5.692214370E-1,2.409165382E0,1.043033981E1
1.333182950E-1,-5.452794433E-1,2.313397408E0,1.047343540E1
1.353164720E-1,-6.075286865E-1,2.236783028E0,1.049737740E1
1.373147010E-1,-6.123170853E-1,2.073977232E0,1.027711105E1
1.393129830E-1,-5.835866928E-1,1.982997537E0,1.031541824E1
1.413113160E-1,-5.835866928E-1,1.896806240E0,1.026753426E1
1.433097010E-1,-6.458359361E-1,1.944690347E0,9.951498985E0
1.453080870E-1,-5.979518890E-1,1.834557056E0,9.865307808E0
1.473064720E-1,-5.787982345E-1,1.944690347E0,9.702502251E0
1.493048580E-1,-6.554127336E-1,1.901594758E0,9.549273491E0
1.513032430E-1,-5.931634903E-1,1.786673069E0,9.731232643E0
1.533016280E-1,-5.117605925E-1,1.695693374E0,9.917980194E0
1.553000140E-1,-4.112041295E-1,1.892017841E0,9.601945877E0
1.572983990E-1,-4.782418013E-1,1.935113549E0,9.443928719E0
1.592967850E-1,-4.542997777E-1,1.796249866E0,9.554061890E0
1.612951700E-1,-5.261258483E-1,1.537676096E0,9.740809441E0
1.632935560E-1,-5.596446395E-1,1.446696401E0,1.004247856E1
1.652919410E-1,-4.926069975E-1,1.762730956E0,9.352949142E0
1.672903260E-1,-4.542997777E-1,1.911171556E0,9.372102737E0
1.692887120E-1,-4.112041295E-1,1.824980259E0,9.668983459E0
1.712870970E-1,-3.441664875E-1,1.930325150E0,9.970652580E0
1.732854830E-1,-3.441664875E-1,1.963843942E0,9.635464668E0
1.752838680E-1,-3.728969097E-1,2.030881643E0,9.692925453E0
1.772822530E-1,-3.585317135E-1,2.361281395E0,9.678560257E0
1.792806390E-1,-3.537433147E-1,1.892017841E0,1.019570827E1
1.812790240E-1,-4.016273320E-1,2.150591612E0,1.024359226E1
1.832774100E-1,-3.920505345E-1,2.820968151E0,8.960299492E0
1.852757950E-1,-5.021837950E-1,2.179322004E0,9.094375610E0
1.872741810E-1,-4.303577542E-1,2.107496023E0,1.029147625E1
1.892725660E-1,-3.441664875E-1,2.739565372E0,9.831789017E0
1.912709510E-1,-3.393780887E-1,2.485780001E0,9.194931984E0
1.932693370E-1,-3.681085110E-1,2.121861219E0,1.043033981E1
1.952677740E-1,-3.920505345E-1,2.615066767E0,9.391256332E0
1.972662640E-1,-3.010708690E-1,2.500145197E0,9.290699959E0
1.992647530E-1,-4.159925580E-1,2.586336374E0,9.587580681E0
2.012632430E-1,-3.489548862E-1,2.552817583E0,9.257181168E0
2.032617330E-1,-3.010708690E-1,2.452261209E0,9.803058624E0
2.052602220E-1,-3.058592677E-1,2.184110403E0,9.941922188E0
2.072587120E-1,-1.909375787E-1,2.198475599E0,1.042555141E1
2.092572010E-1,-2.388216257E-1,2.504933596E0,9.539696693E0
2.112556910E-1,-3.824737072E-1,2.682104349E0,8.912415504E0
2.132541810E-1,-3.489548862E-1,2.121861219E0,9.544485092E0
2.152526700E-1,-4.207809567E-1,2.595913172E0,9.070432663E0
2.172512120E-1,-2.819172442E-1,2.136226416E0,9.697713852E0
2.192497530E-1,-2.962824702E-1,2.303820610E0,9.812635422E0
2.212483470E-1,-2.100912035E-1,2.696469545E0,9.080010414E0
2.232469930E-1,-2.196680009E-1,2.035670042E0,9.779116631E0
2.252456390E-1,-2.483984232E-1,1.896806240E0,1.025316906E1
2.272442850E-1,-2.388216257E-1,2.442684174E0,9.381679535E0
2.292429310E-1,-3.968389332E-1,2.428318977E0,8.850166321E0
2.312415760E-1,-3.824737072E-1,2.093130827E0,9.295488358E0
2.332402220E-1,-3.154360652E-1,2.260725021E0,9.831789017E0
2.352388680E-1,-3.633201122E-1,2.500145197E0,9.108740807E0
2.372372010E-1,-3.393780887E-1,1.772307754E0,9.836577415E0
2.392355350E-1,-2.483984232E-1,1.858499050E0,1.029147625E1
2.412337120E-1,-2.244564146E-1,2.064400434E0,9.678560257E0
2.432318890E-1,-3.154360652E-1,1.920748353E0,9.305065155E0
2.452300660E-1,-2.867056429E-1,2.198475599E0,9.985017776E0
2.472282430E-1,-1.526303589E-1,2.303820610E0,9.668983459E0
2.492264200E-1,-2.053027898E-1,2.279878616E0,1.009036350E1
2.512245970E-1,-5.207388848E-2,2.231994629E0,1.009994030E1
2.532227740E-1,-6.643909961E-2,2.485780001E0,1.041118622E1
2.552209510E-1,-1.334767491E-1,2.782660961E0,9.487024307E0
2.572191280E-1,-2.579752207E-1,2.476203203E0,9.487024307E0
2.592173060E-1,-3.292027488E-2,2.648585558E0,1.085171890E1
2.612154830E-1,-4.249707982E-2,2.562394381E0,9.917980194E0
2.632136600E-1,-1.669955701E-1,2.548029184E0,9.917980194E0
2.652117850E-1,-1.526303589E-1,3.534440279E0,8.984241486E0
2.672098060E-1,-2.292448133E-1,3.022081137E0,8.749609947E0
2.692077740E-1,-8.080431074E-2,2.720411777E0,1.009515190E1
2.712056390E-1,5.805939063E-2,2.830544949E0,1.011909389E1
2.732035030E-1,1.107318252E-1,2.706046581E0,9.664195061E0
2.752013680E-1,1.873462796E-1,2.844910145E0,1.058356857E1
2.771992330E-1,2.160767019E-1,3.558382273E0,9.194931984E0
2.791970970E-1,4.369417951E-2,2.868852139E0,9.659406662E0
2.811949620E-1,2.932897024E-2,3.146579504E0,1.041597462E1
2.831928260E-1,5.327098817E-2,3.079541922E0,9.429563522E0
2.851907430E-1,-1.286883354E-1,2.969408751E0,9.132682800E0
2.871887120E-1,-1.622071713E-1,3.338115692E0,8.854954720E0
2.891867330E-1,-6.643909961E-2,3.093907118E0,8.610746384E0
2.911848060E-1,2.932897024E-2,2.548029184E0,1.014782429E1
2.931829310E-1,8.200141042E-2,3.251924515E0,9.692925453E0
2.951811080E-1,1.975216344E-2,2.830544949E0,9.132682800E0
2.971793370E-1,-2.334346622E-2,2.179322004E0,1.009994030E1
2.991775660E-1,1.203086376E-1,3.553593874E0,8.634688377E0
3.011757950E-1,9.636662155E-2,2.533663988E0,9.075222015E0
3.031740240E-1,7.242459804E-2,2.792237759E0,9.707290649E0
3.051722530E-1,2.687491477E-1,3.194463730E0,9.649829865E0
3.071704830E-1,8.200141042E-2,2.639008760E0,9.477447510E0
3.091687120E-1,2.256535143E-1,2.543240786E0,1.042555141E1
3.111668890E-1,2.926911712E-1,3.227982521E0,9.649829865E0
3.131650140E-1,1.059434265E-1,3.074753523E0,8.893261909E0
3.151631390E-1,1.975216344E-2,2.868852139E0,9.870096207E0
3.171612120E-1,2.112883031E-1,3.251924515E0,9.463082314E0
3.191591280E-1,2.448071241E-1,3.204040527E0,9.908403397E0
3.211570450E-1,3.166331649E-1,2.892794132E0,9.424775124E0
3.231549620E-1,4.985924959E-1,2.782660961E0,1.028668785E1
3.251528780E-1,5.895721912E-1,3.639785051E0,9.774328232E0
3.271507950E-1,4.507084787E-1,2.691681147E0,9.587580681E0
3.291487120E-1,6.805518270E-1,3.524863482E0,9.745597839E0
3.311466280E-1,7.667431235E-1,3.400364876E0,9.793481827E0
3.331445970E-1,6.997054219E-1,2.844910145E0,1.119648457E1
3.351426180E-1,8.577227592E-1,3.855263233E0,9.582792282E0
3.371406910E-1,7.236474752E-1,3.740341663E0,9.084798813E0
3.391388680E-1,4.650736749E-1,3.625419855E0,9.439140320E0
3.411370970E-1,4.554968774E-1,4.051588058E0,9.357737541E0
3.431353780E-1,4.028244317E-1,3.486556292E0,9.707290649E0
3.451337120E-1,5.991489887E-1,3.826532841E0,1.024838066E1
3.471320970E-1,6.518214345E-1,4.310161591E0,1.005684471E1
3.491305350E-1,4.219780564E-1,3.342904091E0,9.970652580E0
3.511290240E-1,4.554968774E-1,4.156932831E0,1.008557510E1
3.531275140E-1,3.788824081E-1,4.453813553E0,9.448717117E0
3.551260030E-1,1.011550203E-1,4.200028419E0,1.041597462E1
3.571244930E-1,-2.148796022E-1,4.013280392E0,1.054047298E1
3.591229830E-1,-5.787982345E-1,4.410717964E0,9.769539833E0
3.611213160E-1,-5.213374496E-1,5.219958305E0,8.447940826E0
3.631196490E-1,-8.469488621E-1,3.840898037E0,7.921216488E0
3.651179830E-1,-4.064157307E-1,3.759495258E0,9.357737541E0
3.671162640E-1,-6.165069342E-2,4.113837242E0,8.261193275E0
3.691144410E-1,4.848258570E-2,2.873640537E0,9.271546364E0
3.711126180E-1,6.039373875E-1,3.055599928E0,8.524555206E0
3.731107950E-1,6.087257862E-1,2.413953781E0,8.634688377E0
3.751089720E-1,8.433575630E-1,2.495356798E0,9.180566788E0
3.771071490E-1,1.245583415E0,4.027645588E0,8.672995567E0
3.791053260E-1,6.135141850E-1,3.663727045E0,8.692149162E0
3.811035030E-1,7.140706778E-1,3.917512417E0,9.410409927E0
3.831016810E-1,5.656301379E-1,4.156932831E0,9.707290649E0
3.850998580E-1,6.087257862E-1,5.052364349E0,9.209297180E0
3.870980350E-1,1.586158574E-1,5.550358295E0,8.299500465E0
3.890962120E-1,-5.207388848E-2,4.381987572E0,8.486248016E0
3.910943890E-1,1.777694821E-1,4.870404720E0,8.380903244E0
3.930925660E-1,-1.382651478E-1,4.956595898E0,8.275558472E0
3.950907430E-1,-3.441664875E-1,4.276642799E0,8.898050308E0
3.970889720E-1,-4.189853091E-3,5.579088688E0,8.807070732E0
3.990872530E-1,-4.495113790E-1,4.391564369E0,7.969100475E0
4.010855870E-1,-6.027402878E-1,4.554370403E0,8.687360764E0
4.030839720E-1,-7.128735781E-1,4.161721230E0,8.553285599E0
4.050823580E-1,-4.542997777E-1,5.756259441E0,9.218873978E0
4.070807430E-1,-9.570821524E-1,4.812943935E0,8.356961250E0
4.090791280E-1,-1.297058821E0,3.567959070E0,8.452729225E0
4.110775140E-1,-8.373720646E-1,3.697246075E0,8.773551941E0
4.130758990E-1,-6.841431260E-1,4.113837242E0,9.113529205E0
4.150742850E-1,-7.894880176E-1,5.358821869E0,9.113529205E0
4.170726700E-1,-1.292270422E0,3.979761839E0,8.620323181E0
4.190710560E-1,-1.110311031E0,3.625419855E0,8.807070732E0
4.210694410E-1,-1.286883354E-1,5.296572685E0,9.721655846E0
4.230678260E-1,-2.675520480E-1,4.587889194E0,8.136694908E0
4.250662120E-1,-1.129464626E0,3.788225651E0,8.261193275E0
4.270642330E-1,-2.962824702E-1,4.674080372E0,8.558073997E0
4.290622530E-1,-2.579752207E-1,4.520851135E0,9.142259598E0
4.310602740E-1,1.107318252E-1,3.587112665E0,7.360973358E0
4.330582950E-1,6.087257862E-1,4.147356033E0,8.960299492E0
4.350563160E-1,5.129576921E-1,3.994127035E0,9.103952408E0
4.370543370E-1,-2.451063871E0,3.103483915E0,3.128024578E0
4.390523580E-1,8.912416101E-1,-4.682459831E0,2.431670952E1
4.410504310E-1,1.686116576E0,3.544017076E0,9.185355186E0
4.430485560E-1,-9.091981053E-1,-1.617881775E0,7.274781704E0
4.450467330E-1,1.523310781E0,4.449025154E0,1.535760689E1
4.470449620E-1,1.461061597E0,5.665279865E0,1.054526138E1
4.490432430E-1,4.459200799E-1,4.664503574E0,1.005684471E1
4.510415760E-1,2.448071241E-1,4.707599163E0,5.886145115E0
4.530399100E-1,-4.189853091E-3,2.131438017E0,1.292030907E1
4.550382430E-1,-7.416039705E-1,3.606266260E0,9.922768593E0
4.570365760E-1,-9.475052953E-1,4.367622375E0,1.013824749E1
4.590349100E-1,-2.867056429E-1,4.453813553E0,1.282932949E1
4.610332430E-1,-2.627636492E-1,4.683657169E0,1.215895367E1
4.630315760E-1,-2.005143911E-1,5.191227913E0,1.317409515E1
4.650298580E-1,-1.957259923E-1,5.488108635E0,1.283890629E1
4.670281390E-1,-9.516951442E-2,5.018845081E0,1.481651688E1
4.690264200E-1,-4.303577542E-1,5.124190331E0,1.420839024E1
4.710246490E-1,-2.771288455E-1,6.522404194E0,1.671751404E1
4.730227220E-1,-7.272387743E-1,5.775413036E0,2.150112915E1
4.750207950E-1,-1.450287700E0,5.631761074E0,1.968153572E1
4.770188680E-1,-1.115099430E0,7.978078842E0,1.266652393E1
4.790169410E-1,-1.335366011E0,9.299677849E0,5.038597584E0
4.810150140E-1,-1.479018092E0,8.040328026E0,4.080916882E0
4.830130870E-1,-8.852560520E-1,7.714716434E0,4.880579948E0
4.850111600E-1,-4.495113790E-1,5.397129059E0,7.183802128E0
4.870092330E-1,-2.627636492E-1,3.582324266E0,9.841365814E0
4.890073060E-1,2.735375464E-1,2.448071241E-1,1.233133602E1
4.910054310E-1,4.698620737E-1,-1.306635618E0,1.319803715E1
4.930036080E-1,4.794389009E-1,4.890156984E-1,1.078946972E1
4.950018370E-1,2.932897024E-2,-3.872621357E-1,8.189367294E0
4.970001180E-1,5.386953708E-3,4.076128304E-1,8.371326447E0
4.989983990E-1,-1.238999367E-1,-4.249707982E-2,7.629123688E0
5.009966810E-1,6.284779310E-2,1.044470549E0,8.601169586E0
5.029949620E-1,-7.122749835E-2,1.868075848E0,9.587580681E0
5.049932430E-1,3.262099922E-1,1.034893632E0,1.269525433E1
5.069915240E-1,3.645172119E-1,1.872864246E0,1.220204926E1
5.089898060E-1,4.459200799E-1,2.955043554E0,1.056441498E1
5.109880870E-1,2.208651006E-1,3.582324266E0,8.605957985E0
5.129863680E-1,2.304419130E-1,4.674080372E0,9.003395081E0
5.149846490E-1,-1.526303589E-1,4.396352768E0,9.668983459E0
5.169826700E-1,-2.914940715E-1,4.262277603E0,8.251616478E0
5.189806910E-1,-3.345896900E-1,3.486556292E0,1.025316906E1
5.209787120E-1,-2.723404467E-1,2.844910145E0,9.142259598E0
5.229767330E-1,-5.740098357E-1,1.848922253E0,1.095706367E1
5.249747530E-1,-3.537433147E-1,2.241571426E0,1.112465858E1
5.269727740E-1,-9.331400990E-1,2.672527552E0,8.084021568E0
5.289707950E-1,-8.325836658E-1,2.327762604E0,9.056067467E0
5.309688160E-1,-8.517372608E-1,1.896806240E0,9.554061890E0
5.329668370E-1,-9.044097066E-1,7.236474752E-1,1.129225254E1
5.349648580E-1,-9.858125448E-1,2.390011787E0,9.132682800E0
5.369628780E-1,-1.072003841E0,2.409165382E0,8.467094421E0
5.389608990E-1,-1.196502328E0,2.811391354E0,8.562862396E0
5.409588680E-1,-1.143829823E0,2.030881643E0,1.041118622E1
5.429568370E-1,-9.906009436E-1,1.264737010E0,1.271919632E1
5.449548060E-1,-1.277905107E0,1.580771685E0,1.180461121E1
5.469527220E-1,-1.507748485E0,3.366846085E0,7.131129742E0
5.489506390E-1,-1.541267395E0,4.525639534E0,7.131129742E0
5.509485560E-1,-1.656189084E0,2.150591612E0,1.003769016E1
5.529464720E-1,-1.651400566E0,1.135450125E0,1.284848309E1
5.549443890E-1,-1.814206362E0,1.829768658E0,9.041702271E0
5.569423060E-1,-1.670554280E0,2.653373957E0,8.993818283E0
5.589402220E-1,-1.713649869E0,2.897582531E0,8.811859131E0
5.609381390E-1,-2.015319347E0,1.441908002E0,1.096185207E1
5.629360560E-1,-2.254739523E0,3.189675331E0,8.275558472E0
5.649339720E-1,-2.431910276E0,2.409165382E0,7.686584473E0
5.669318890E-1,-2.451063871E0,9.774328470E-1,1.038724422E1
5.689298060E-1,-2.321777105E0,1.063624144E0,1.167053604E1
5.709277220E-1,-2.752733469E0,1.470638394E0,1.129704094E1
5.729256390E-1,-3.107075214E0,1.925536752E0,9.372102737E0
5.749235560E-1,-3.236362219E0,2.921524525E0,1.030584145E1
5.769214720E-1,-3.322553396E0,2.667739153E0,9.261969566E0
5.789193890E-1,-3.643376350E0,3.338115692E0,7.997830868E0
5.809173060E-1,-3.365648985E0,2.346916199E0,1.140238571E1
5.829152740E-1,-3.633799553E0,1.307832718E0,1.079425812E1
5.849132950E-1,-3.849277735E0,2.375646591E0,9.601945877E0
5.869113160E-1,-3.854066133E0,3.481767893E0,8.831012726E0
5.889093370E-1,-3.753509760E0,2.361281395E0,8.237251282E0
5.909073580E-1,-3.767874956E0,4.507084787E-1,1.320282555E1
5.929053780E-1,-4.213196278E0,2.394800186E0,7.437587738E0
5.949033990E-1,-4.021660328E0,1.911171556E0,8.505401611E0
5.969014200E-1,-3.911526918E0,2.212841034E0,9.750386238E0
5.988994410E-1,-3.719990969E0,2.648585558E0,7.887697697E0
6.008974620E-1,-2.728791475E0,-2.675520480E-1,1.603277206E1
6.028954830E-1,-3.289034605E0,1.700481772E0,7.887697697E0
6.048935030E-1,-4.031237125E0,3.697246075E0,6.092046261E0
6.068915240E-1,-3.652953148E0,3.429095268E0,7.763198853E0
6.088895450E-1,-2.973000050E0,1.662174582E0,1.181897640E1
6.108875660E-1,-2.709637880E0,1.437119603E0,1.377264500E1
6.128854830E-1,-2.944269657E0,2.351704597E0,1.004247856E1
6.148833990E-1,-3.102286816E0,2.083554029E0,8.117541313E0
6.168813160E-1,-3.188478231E0,1.619078875E0,8.098387718E0
6.188792330E-1,-3.198055029E0,2.078765631E0,8.582015991E0
6.208771490E-1,-2.925115824E0,1.887229443E0,9.850942612E0
6.228750660E-1,-2.589927673E0,1.087566137E0,1.508466816E1
6.248730350E-1,-3.092710018E0,2.619855165E0,6.819883347E0
6.268710560E-1,-3.389590979E0,2.160168409E0,9.233239174E0
6.288691280E-1,-2.949058056E0,5.081692934E-1,1.396896935E1
6.308672530E-1,-3.748721361E0,3.362057686E0,7.073668957E0
6.328654310E-1,-3.705625772E0,3.567959070E0,8.744821548E0
6.348636600E-1,-3.590703964E0,3.907935619E0,7.107187748E0
6.368619410E-1,-2.714426279E0,1.762730956E0,1.512297535E1
6.388602740E-1,-2.949058056E0,2.136226416E0,1.015261269E1
6.408586600E-1,-3.341706991E0,2.265513420E0,5.675455093E0
6.428570450E-1,-2.743156672E0,1.149815321E0,1.188601398E1
6.448554310E-1,-2.915539026E0,9.534908533E-1,1.114381218E1
6.468538160E-1,-2.886808634E0,1.283890605E0,1.062187576E1
6.488522010E-1,-2.853289843E0,1.939901948E0,6.484695435E0
6.508505870E-1,-2.685695648E0,1.341351509E0,8.993818283E0
6.528489720E-1,-2.422333479E0,1.068412542E0,1.079904652E1
6.548470970E-1,-2.613869667E0,1.954267144E0,8.979453087E0
6.568450660E-1,-2.020107746E0,1.346139908E0,8.883685112E0
6.588430350E-1,-1.651400566E0,1.145026922E0,1.081341171E1
6.608406910E-1,-2.144606113E0,2.394800186E0,1.066975975E1
6.628383470E-1,-2.460640907E0,3.630208254E0,6.331466198E0
6.648360030E-1,-2.058414936E0,2.141014814E0,9.664195061E0
6.668336600E-1,-1.541267395E0,2.879027426E-1,1.264737034E1
6.688313160E-1,-1.426345706E0,2.591723204E-1,1.226429844E1
6.708289720E-1,-2.230797529E0,3.764283657E0,3.305195332E0
6.728266810E-1,-1.225232720E0,1.303044319E0,1.169926643E1
6.748244410E-1,-1.129464626E0,1.915959954E0,8.802282333E0
6.768222530E-1,-9.810241461E-1,2.974795699E-1,1.386841297E1
6.788201180E-1,-9.235633016E-1,1.283890605E0,9.185355186E0
6.808180350E-1,-8.900445104E-1,8.337807655E-1,8.390480042E0
6.828160030E-1,-7.655459642E-1,4.124012291E-1,1.232175922E1
6.848140240E-1,-8.373720646E-1,3.501519859E-1,7.456741333E0
6.868120970E-1,-4.782418013E-1,3.405751884E-1,7.260416508E0
6.888102220E-1,1.011550203E-1,-1.455076098E0,1.540549088E1
6.908083990E-1,-3.393780887E-1,1.796249866E0,6.355408192E0
6.928066280E-1,6.183025837E-1,8.002619147E-1,1.227866364E1
6.948049100E-1,3.549404144E-1,-3.292027488E-2,1.077510452E1
6.968031910E-1,2.352303118E-1,1.566406488E0,3.487154722E0
6.988014720E-1,1.508945584E0,-5.835866928E-1,1.437598419E1
7.007997530E-1,1.298255920E0,1.777694821E-1,9.429563522E0
7.027980350E-1,1.221641421E0,1.480215192E0,5.445611954E0
7.047962120E-1,2.179322004E0,-9.379284978E-1,1.452442455E1
7.067942330E-1,2.050035238E0,-6.171054840E-1,8.883685112E0
7.087922530E-1,1.982997537E0,5.805939063E-2,7.700949669E0
7.107902740E-1,2.955043554E0,-6.889315248E-1,1.257075596E1
7.127882950E-1,2.346916199E0,7.380126715E-1,7.662642479E0
7.147863160E-1,2.212841034E0,1.868075848E0,6.690596581E0
7.167843370E-1,2.246359825E0,6.709750295E-1,1.219247246E1
7.187823580E-1,1.978209138E0,1.480215192E0,7.447164536E0
7.207803780E-1,2.322974205E0,-6.643909961E-2,1.558745003E1
7.227783990E-1,2.102707624E0,2.706046581E0,3.688267708E0
7.247764200E-1,2.524087191E0,-7.990648150E-1,1.312142277E1
7.267744410E-1,2.035670042E0,2.454056777E-2,9.980229378E0
7.287724620E-1,2.131438017E0,-9.858125448E-1,1.225951004E1
7.307704830E-1,1.350928307E0,-8.559270948E-2,5.613205910E0
7.327685030E-1,1.398812294E0,-1.866878748E0,1.169447803E1
7.347665240E-1,1.384447098E0,-2.843713045E0,1.447175217E1
7.367645450E-1,3.070563674E-1,2.284667015E0,1.164779186E0
7.387625660E-1,1.623867273E0,-6.554127336E-1,1.523789692E1
7.407605870E-1,1.374870300E0,-1.306635618E0,8.639476776E0
7.427586080E-1,1.815403461E0,-1.273116708E0,9.961075783E0
7.447566280E-1,1.595136881E0,-1.780687571E0,1.111029339E1
7.467546490E-1,1.288679123E0,-7.463923693E-1,5.665878296E0
7.487526700E-1,1.868075848E0,-2.891597033E0,1.530972290E1
7.507506910E-1,1.240795016E0,-8.565256596E-1,8.649053574E0
7.527487120E-1,5.368997455E-1,1.092354536E0,4.712985992E0
7.547467330E-1,6.757634282E-1,5.985504249E-4,6.206967831E0
7.567447530E-1,6.566098332E-1,-2.700061083E0,1.475426769E1
7.587427740E-1,1.068412542E0,-2.728791475E0,1.258033276E1
7.607407950E-1,3.932476342E-1,-2.652176857E0,1.194347477E1
7.627388160E-1,-1.526303589E-1,-7.463923693E-1,4.861426353E0
7.647368370E-1,-1.430535465E-1,-7.080851793E-1,9.381679535E0
7.667348580E-1,-1.478419602E-1,-2.206855536E0,9.927556992E0
7.687328780E-1,-2.962824702E-1,-1.340154409E0,1.000895977E1
7.707308990E-1,2.400187254E-1,-2.953846455E0,1.343266869E1
7.727289200E-1,-5.686229095E-2,-1.771110654E0,1.068412495E1
7.747269410E-1,-4.638765752E-1,1.681926697E-1,5.996278286E0
7.767249620E-1,-2.675520480E-1,-2.053027898E-1,8.998606682E0
7.787229830E-1,5.805939063E-2,-3.044826031E0,1.453878975E1
7.807210030E-1,-3.202244639E-1,-1.335366011E0,6.178237438E0
7.827190240E-1,1.298854351E-1,-9.666589499E-1,1.022443867E1
7.847170450E-1,1.155202314E-1,-1.110311031E0,1.050695419E1
7.867150660E-1,-2.148796022E-1,-7.463923693E-1,1.053568459E1
7.887130870E-1,2.932897024E-2,-4.782418013E-1,5.847837448E0
7.907111080E-1,3.405751884E-1,-1.795052767E0,8.864531517E0
7.927091280E-1,8.768763542E-1,-3.159747601E0,1.461061573E1
7.947071490E-1,1.538274586E-1,-1.617881775E0,7.289146900E0
7.967051700E-1,8.481459618E-1,-2.048838139E0,8.491036415E0
7.987032430E-1,2.783259451E-1,-1.541267395E0,9.003395081E0
8.007013160E-1,6.566098332E-1,-2.168548107E0,1.201530170E1
8.026993890E-1,6.997054219E-1,-2.877231836E0,1.006642151E1
8.046974620E-1,7.475894690E-1,-1.450287700E0,6.355408192E0
8.066955350E-1,1.868075848E0,-2.494159698E0,1.056920338E1
8.086936080E-1,1.164180517E0,-2.719214678E0,1.229781723E1
8.106916810E-1,5.799953341E-1,-4.112041295E-1,6.767210960E0
8.126898060E-1,1.111508131E0,-1.541267395E0,1.319324875E1
8.146879830E-1,5.512649417E-1,-2.388216257E-1,6.264428616E0
8.166861600E-1,8.960300088E-1,-3.111863613E0,1.582686996E1
8.186843370E-1,3.453635871E-1,-9.331400990E-1,6.226121426E0
8.206825140E-1,5.081692934E-1,8.678980917E-2,5.560533524E0
8.226806910E-1,1.317409515E0,-4.256291866E0,1.858020210E1
8.246788680E-1,5.129576921E-1,-1.431134105E0,6.183025837E0
8.266770450E-1,8.289923668E-1,-1.474229693E0,1.049737740E1
8.286752220E-1,3.262099922E-1,-4.112041295E-1,4.985925198E0
8.306733990E-1,6.278793812E-1,-2.202066898E0,1.031541824E1
8.326715760E-1,9.247604012E-1,-4.730343819E0,1.822586060E1
8.346697530E-1,-8.978256024E-3,-1.139041424E0,4.210203648E0
8.366679310E-1,5.943605900E-1,-1.646612167E0,1.056920338E1
8.386661080E-1,1.059434265E-1,-1.364096403E0,6.829460144E0
8.406642850E-1,4.507084787E-1,-3.221997023E0,1.115338898E1
8.426624100E-1,8.098387122E-1,-4.007295132E0,1.247019958E1
8.446602740E-1,2.783259451E-1,-1.751957059E0,7.624335289E0
8.466581390E-1,1.442506462E-1,-2.269104719E0,1.115817738E1
8.486560030E-1,5.386953708E-3,-8.948329091E-1,7.025784969E0
8.506538680E-1,-1.191115379E-1,-1.411980510E0,1.039682102E1
8.526517330E-1,3.214215636E-1,-2.877231836E0,1.156997967E1
8.546495970E-1,-2.813187055E-2,-1.186925530E0,8.227674484E0
8.566474620E-1,7.242459804E-2,-1.009754539E0,7.729680061E0
8.586453260E-1,4.890156984E-1,-3.317764997E0,1.226908684E1
8.606431910E-1,2.352303118E-1,-9.522937536E-1,8.208520889E0
8.626411080E-1,5.225345492E-1,-4.399345517E-1,1.064581776E1
8.646390240E-1,3.980360329E-1,-1.737591863E0,1.381095219E1
8.666369410E-1,2.932897024E-2,-5.207388848E-2,3.827131510E0
8.686349100E-1,9.870096445E-1,-2.542043686E0,1.354759026E1
8.706328780E-1,4.363432527E-1,-1.584362984E0,1.099058247E1
8.726308470E-1,2.256535143E-1,-2.292448133E-1,5.455188751E0
8.746288680E-1,6.039373875E-1,-8.900445104E-1,8.926780701E0
8.766269410E-1,7.140706778E-1,-9.714473486E-1,1.105762100E1
8.786250140E-1,4.938040972E-1,-1.579574585E0,1.143111610E1
8.806231390E-1,4.985924959E-1,-4.973953962E-1,7.969100475E0
8.826213160E-1,1.025316834E0,-2.264316320E0,1.383010578E1
8.846194930E-1,6.087257862E-1,-6.745663285E-1,9.170989990E0
8.866176700E-1,6.566098332E-1,7.188590765E-1,4.258087635E0
8.886158470E-1,1.346139908E0,-2.494159698E0,1.394981575E1
8.906140240E-1,6.805518270E-1,-5.979518890E-1,7.001842976E0
8.926122010E-1,1.188122630E0,-2.226009130E0,1.356674385E1
8.946103780E-1,1.341351509E0,-1.167771935E0,7.518990517E0
8.966085560E-1,1.777096152E0,-1.813607812E-1,8.380903244E0
8.986067330E-1,2.011728048E0,-1.541267395E0,1.062666416E1
9.006047010E-1,2.313397408E0,-2.642600060E0,1.172799683E1
9.026026700E-1,1.959055543E0,-7.846996188E-1,7.049726963E0
9.046006390E-1,2.002151251E0,-6.458359361E-1,1.081820011E1
9.065986080E-1,2.763507366E0,-2.034472942E0,1.122042656E1
9.085965760E-1,2.591124773E0,-3.393780887E-1,6.930016994E0
9.105945450E-1,2.959831953E0,-1.665765882E0,1.008078671E1
9.125925140E-1,2.811391354E0,-1.143231317E-1,8.390480042E0
9.145904830E-1,2.935889721E0,-1.349731207E0,1.102888966E1
9.165884510E-1,3.295020103E0,-1.048061848E0,1.101452446E1
9.185864200E-1,3.285443306E0,-1.617881775E0,1.490749645E1
9.205843890E-1,2.322974205E0,5.752069354E-1,3.099294186E0
9.225823580E-1,2.366069794E0,-5.213374496E-1,1.085650730E1
9.245803260E-1,2.725200176E0,-6.649895310E-1,1.017176628E1
9.265782950E-1,2.557605982E0,-1.866878748E0,1.326986313E1
9.285762640E-1,1.959055543E0,9.582792521E-1,7.940370083E0
9.305742330E-1,1.762730956E0,1.686116576E0,4.310760021E0
9.325722010E-1,2.375646591E0,-1.847725153E0,1.547731686E1
9.345701700E-1,2.227206230E0,-3.250128925E-1,8.749609947E0
9.365681390E-1,1.911171556E0,-2.508524895E0,1.308790398E1
9.385661080E-1,1.489791989E0,-6.165069342E-2,4.938041210E0
9.405641280E-1,1.518522382E0,-1.349731207E0,8.658630371E0
9.425622010E-1,1.738788962E0,-1.603516579E0,1.170405483E1
9.445603260E-1,1.781884670E0,-1.603516579E0,9.170989990E0
9.465585030E-1,2.174533606E0,-6.266822815E-1,1.202966690E1
9.485567330E-1,1.810615063E0,4.842272997E-1,7.581239700E0
9.505550140E-1,1.350928307E0,4.698620737E-1,6.317101002E0
9.525533470E-1,1.599925280E0,-2.498948097E0,1.373912621E1
9.545517330E-1,1.547252893E0,-3.274669409E0,1.364335823E1
9.565501700E-1,1.173757434E0,1.250371814E0,5.986701488E0
9.585486600E-1,1.020528436E0,1.738788962E0,8.337807655E0
9.605472010E-1,7.140706778E-1,-6.643909961E-2,1.178545761E1
9.625457950E-1,1.183334231E0,6.039373875E-1,6.953958988E0
9.645443890E-1,1.269525409E0,1.221641421E0,1.117733097E1
9.665429830E-1,1.456273198E0,-1.717839688E-1,1.446217537E1
9.685415760E-1,6.949170232E-1,3.788824081E-1,5.005078793E0
9.705401700E-1,6.566098332E-1,-1.148618221E0,1.311184597E1
9.725387640E-1,3.405751884E-1,-1.450287700E0,8.505401611E0
9.745369930E-1,3.166331649E-1,-8.559270948E-2,6.039373875E0
9.765352220E-1,4.411316514E-1,-1.478419602E-1,1.092354488E1
9.785334510E-1,6.230909824E-1,3.309983909E-1,1.021965027E1
9.805316810E-1,1.975216344E-2,-6.458359361E-1,1.119648457E1
9.825299100E-1,2.017114908E-1,5.327098817E-2,7.629123688E0
9.845281390E-1,3.980360329E-1,-1.962646842E0,1.494101524E1
9.865263680E-1,2.639607489E-1,6.763619930E-2,5.479130745E0
9.885245970E-1,5.608417392E-1,-8.182184100E-1,1.238400841E1
9.905228260E-1,5.752069354E-1,7.140706778E-1,4.602852821E0
9.925210560E-1,6.566098332E-1,-1.148618221E0,1.371518421E1
9.945193370E-1,2.448071241E-1,1.203086376E-1,9.281123161E0
9.965176700E-1,6.661866307E-1,-3.920505345E-1,8.912415504E0
9.985160560E-1,4.219780564E-1,-1.306635618E0,8.371326447E0
1.000514441E0,2.064998895E-1,-1.560420990E0,9.276334763E0
1.002512826E0,4.938040972E-1,-1.019331336E0,1.308311558E1
1.004511212E0,3.501519859E-1,7.140706778E-1,5.809530258E0
1.006509597E0,5.386953708E-3,-2.120664120E0,1.446696377E1
1.008507983E0,-2.340332121E-1,-2.914940715E-1,8.519766808E0
1.010506368E0,4.267664552E-1,2.035670042E0,7.930793285E0
1.012504753E0,-2.914940715E-1,-9.953893423E-1,8.926780701E0
1.014503139E0,1.975216344E-2,-1.900397658E0,1.134492493E1
1.016501524E0,2.160767019E-1,-5.404910445E-1,1.209191608E1
1.018499910E0,2.687491477E-1,2.112883031E-1,6.441599846E0
1.020498139E0,1.203086376E-1,-8.804676533E-1,9.769539833E0
1.022496368E0,5.805939063E-2,-1.512536883E0,1.321240234E1
1.024494597E0,-1.855506375E-2,-2.531868219E-1,9.769539833E0
1.026492826E0,-1.861491799E-1,2.160767019E-1,7.332242489E0
1.028491056E0,-7.272387743E-1,-1.483806491E0,1.074158573E1
1.030489285E0,-7.463923693E-1,-1.397615194E0,9.008183479E0
1.032487514E0,-4.064157307E-1,-2.334346622E-2,9.285911560E0
1.034485743E0,-2.675520480E-1,-1.957259923E-1,1.166095924E1
1.036483972E0,-1.182137132E0,-6.171054840E-1,7.169436932E0
1.038482201E0,-8.565256596E-1,-1.162983418E0,1.206797409E1
1.040480431E0,-1.091157436E0,-1.000177741E0,6.149507046E0
1.042478660E0,-6.793547273E-1,-1.105522633E0,1.413656425E1
1.044476889E0,-8.038532138E-1,-5.117605925E-1,9.170989990E0
1.046475118E0,-8.421604633E-1,2.643797159E0,3.166331768E0
1.048473347E0,-7.128735781E-1,2.495955229E-1,1.095706367E1
1.050471576E0,-8.613140583E-1,-3.226785421E0,1.382531738E1
1.052469701E0,-4.686649740E-1,-1.244386315E0,1.028189945E1
1.054467826E0,-1.717839688E-1,1.490390599E-1,1.202009010E1
1.056465951E0,-6.266822815E-1,2.313397408E0,3.898957491E0
1.058464076E0,-1.426345706E0,-2.531868219E-1,6.580463409E0
1.060462201E0,-7.463923693E-1,-2.795829058E0,1.739746666E1
1.062460326E0,-6.075286865E-1,-1.498171687E0,9.391256332E0
1.064458451E0,-3.585317135E-1,-8.038532138E-1,9.908403397E0
1.066456576E0,-4.112041295E-1,-7.601590455E-2,6.025008678E0
1.068454701E0,-6.937199235E-1,-1.297058821E0,1.304480839E1
1.070452826E0,-8.421604633E-1,-7.224503756E-1,8.696937561E0
1.072450951E0,-1.478419602E-1,8.337807655E-1,8.859743118E0
1.074449076E0,-2.436100245E-1,-2.914940715E-1,8.783128738E0
1.076446993E0,8.200141042E-2,4.315548539E-1,9.640253067E0
1.078444910E0,-1.574187577E-1,-5.309142470E-1,1.303044319E1
1.080442826E0,-2.867056429E-1,9.917980433E-1,7.360973358E0
1.082440743E0,-1.143231317E-1,5.386953708E-3,1.439513779E1
1.084438660E0,-6.266822815E-1,1.312621117E0,5.167884350E0
1.086436576E0,2.454056777E-2,1.872864246E0,6.216544628E0
1.088434493E0,-1.765723825E-1,-1.632246971E0,1.534324169E1
1.090432410E0,-9.379284978E-1,-2.158971310E0,9.218873978E0
1.092430326E0,-5.686229095E-2,4.890156984E-1,9.276334763E0
1.094428243E0,-6.643909961E-2,-4.590881765E-1,5.871779442E0
1.096426160E0,1.777694821E-1,-1.268328309E0,1.316930676E1
1.098424076E0,-3.968389332E-1,-4.064157307E-1,9.913191795E0
1.100421993E0,-1.957259923E-1,-9.475052953E-1,1.048780060E1
1.102419962E0,3.214215636E-1,1.915959954E0,6.211756229E0
1.104417983E0,3.788824081E-1,8.625111580E-1,1.163701725E1
1.106416056E0,7.242459804E-2,-1.086369038E0,1.083735371E1
1.108414181E0,3.501519859E-1,1.729810685E-1,1.104325581E1
1.110412358E0,4.746504724E-1,1.034893632E0,6.925228596E0
1.112410535E0,7.475894690E-1,-8.900445104E-1,1.100015926E1
1.114408712E0,1.149815321E0,-1.799841166E0,1.332732391E1
1.116406889E0,1.087566137E0,7.380126715E-1,4.574122429E0
1.118405066E0,1.422754407E0,1.815403461E0,8.730456352E0
1.120403243E0,8.912416101E-1,-6.362590790E-1,1.156997967E1
1.122401420E0,8.960300088E-1,-8.756792545E-1,1.278144550E1
1.124399597E0,1.145026922E0,1.829768658E0,6.633135796E0
1.126397670E0,1.034893632E0,4.124012291E-1,9.664195061E0
1.128395326E0,8.672995567E-1,-3.728969097E-1,1.179024601E1
1.130392983E0,8.768763542E-1,-1.651400566E0,1.209191608E1
1.132390639E0,9.151836038E-1,1.982997537E0,5.330689907E0
1.134388295E0,8.912416101E-1,9.774328470E-1,7.399280548E0
1.136386003E0,1.145026922E0,-7.224503756E-1,1.211106968E1
1.138383764E0,1.097142935E0,-1.704073071E0,1.387798977E1
1.140381576E0,1.231218219E0,-1.669955701E-1,6.575675011E0
1.142379441E0,1.408389091E0,-7.320271730E-1,9.544485092E0
1.144377358E0,8.912416101E-1,1.125873327E0,4.588487625E0
1.146375326E0,1.293467522E0,-9.187749028E-1,1.478778648E1
1.148373347E0,7.284358740E-1,-1.244386315E0,9.094375610E0
1.150371420E0,1.097142935E0,1.370081902E0,8.701725960E0
1.152369545E0,9.247604012E-1,-1.517325282E0,1.073679733E1
1.154367722E0,8.242039084E-1,-8.900445104E-1,1.115817738E1
1.156365951E0,1.250371814E0,4.076128304E-1,1.061229897E1
1.158364233E0,1.073200941E0,1.446696401E0,7.619546890E0
1.160362566E0,7.906851172E-1,2.208651006E-1,9.884461403E0
1.162360951E0,1.288679123E0,-7.559691668E-1,1.137844372E1
1.164359389E0,7.858967185E-1,-3.872621357E-1,1.032499504E1
1.166357878E0,1.528099179E0,7.428010702E-1,1.166095924E1
1.168356368E0,1.168969035E0,1.394622475E-1,8.069656372E0
1.170354858E0,9.199720025E-1,1.403600693E0,8.462306023E0
1.172353347E0,1.537676096E0,7.811083198E-1,1.208233929E1
1.174351733E0,1.350928307E0,7.763199210E-1,9.702502251E0
1.176349753E0,8.433575630E-1,-2.015319347E0,1.032978344E1
1.178347774E0,1.312621117E0,2.208651006E-1,9.434351921E0
1.180345795E0,5.321113467E-1,6.661866307E-1,7.720103264E0
1.182343816E0,1.034893632E0,8.200141042E-2,9.391256332E0
1.184341837E0,1.106719732E0,4.746504724E-1,8.275558472E0
1.186339858E0,3.214215636E-1,-2.388814688E0,1.560660362E1
1.188337878E0,-8.559270948E-2,-2.752733469E0,6.441599846E0
1.190335951E0,6.853402257E-1,-7.703344226E-1,6.771999359E0
1.192334076E0,1.298854351E-1,-1.426345706E0,1.001853657E1
1.194332253E0,-5.644330382E-1,-2.494159698E0,9.443928719E0
1.196330483E0,-1.376665942E-2,-2.427121878E0,1.244625759E1
1.198328764E0,-2.148796022E-1,-2.800617456E0,6.786364555E0
1.200327045E0,-9.516951442E-2,-2.647388458E0,9.736021042E0
1.202325326E0,3.309983909E-1,-3.030460835E0,1.149815369E1
1.204323608E0,2.352303118E-1,-3.068768024E0,1.177109241E1
1.206321889E0,-1.957259923E-1,-1.249174714E0,7.135918140E0
1.208320118E0,-2.675520480E-1,1.346738487E-1,7.911639690E0
1.210318347E0,-2.196680009E-1,4.028244317E-1,9.812635422E0
1.212316576E0,-5.931634903E-1,-6.649895310E-1,1.152209568E1
1.214314753E0,-3.058592677E-1,-8.325836658E-1,1.185728359E1
1.216312878E0,-2.867056429E-1,-1.622071713E-1,9.329007149E0
1.218310951E0,-1.909375787E-1,-9.858125448E-1,1.192910957E1
1.220308972E0,-7.368155718E-1,-1.043273449E0,7.384915352E0
1.222306993E0,-6.697779298E-1,-2.594716072E0,9.410409927E0
1.224305014E0,-8.373720646E-1,-3.011307240E0,1.126352215E1
1.226303035E0,-8.230068088E-1,-2.987365246E0,1.111508179E1
1.228301056E0,-1.641823769E0,-2.226009130E0,6.451176643E0
1.230299076E0,-1.172560334E0,-2.427121878E0,1.153646088E1
1.232297097E0,-1.033696532E0,-1.445499301E0,7.107187748E0
1.234295118E0,-1.268328309E0,-2.585139275E0,1.164659405E1
1.236293139E0,-8.373720646E-1,-1.024119735E0,9.736021042E0
1.238291160E0,-6.554127336E-1,1.729810685E-1,8.663418770E0
1.240289181E0,-1.526902080E0,-1.378461599E0,9.027337074E0
1.242287201E0,-1.675342679E0,-1.938704848E0,1.038724422E1
1.244285222E0,-6.697779298E-1,1.116296530E0,9.137471199E0
1.246283243E0,-1.555632591E0,-1.388038397E0,1.106719780E1
1.248281264E0,-1.536478996E0,-8.756792545E-1,6.858190536E0
1.250279285E0,-6.266822815E-1,-8.469488621E-1,1.159871006E1
1.252277306E0,-1.507748485E0,-2.575562477E0,1.107198620E1
1.254275378E0,-1.344942808E0,-1.962646842E0,9.793481827E0
1.256273503E0,-1.881243944E0,-1.100734234E0,7.346607685E0
1.258271681E0,-1.651400566E0,-1.924339652E0,1.224514484E1
1.260269910E0,-1.469441295E0,-1.938704848E0,1.031541824E1
1.262268191E0,-1.742380261E0,-1.814206362E0,7.274781704E0
1.264266524E0,-1.512536883E0,-1.526902080E0,1.225472164E1
1.266264910E0,-1.814206362E0,-2.072780132E0,8.859743118E0
1.268263347E0,-1.909974456E0,-7.416039705E-1,7.629123688E0
1.270261837E0,-1.397615194E0,1.490390599E-1,1.110550499E1
1.272260378E0,-1.780687571E0,-1.728015065E0,1.226429844E1
1.274258972E0,-1.416768909E0,1.441908002E0,7.246051311E0
1.276257618E0,-1.225232720E0,2.112883031E-1,7.451952934E0
1.278256264E0,-1.182137132E0,-3.566761971E0,1.457709694E1
1.280254910E0,-1.134253025E0,-1.148618221E0,7.188590527E0
1.282253556E0,-6.410474777E-1,-4.878185987E-1,8.218097687E0
1.284252201E0,-1.517325282E0,-2.249951124E0,9.688137054E0
1.286250378E0,-1.153406620E0,-3.087921619E0,9.980229378E0
1.288248556E0,-9.139865041E-1,-1.881243944E0,1.315015316E1
1.290246576E0,-1.134253025E0,-1.680131078E0,5.637147903E0
1.292244441E0,-9.522937536E-1,-5.069721937E-1,1.155082607E1
1.294242306E0,-9.666589499E-1,-1.273116708E0,9.487024307E0
1.296240170E0,-9.187749028E-1,-1.129464626E0,9.678560257E0
1.298238035E0,-4.782418013E-1,-8.517372608E-1,9.151836395E0
1.300235899E0,-7.368155718E-1,-7.128735781E-1,1.012867069E1
1.302233764E0,-5.404910445E-1,-7.224503756E-1,1.025795746E1
1.304231628E0,-3.393780887E-1,-4.728548229E-2,9.582792282E0
1.306229545E0,-3.058592677E-1,-1.708861470E0,1.143111610E1
1.308227514E0,9.157821536E-2,-8.230068088E-1,9.712079048E0
1.310225535E0,4.848258570E-2,3.645172119E-1,7.226897717E0
1.312223608E0,-1.574187577E-1,-1.426345706E0,1.006163311E1
1.314221733E0,-4.207809567E-1,-3.897161722E0,9.774328232E0
1.316219910E0,3.070563674E-1,-3.221997023E0,1.144069290E1
1.318218087E0,-2.627636492E-1,-1.814206362E0,8.850166321E0
1.320216264E0,-6.165069342E-2,-2.446275473E0,1.175193882E1
1.322214441E0,-5.357026458E-1,-2.771887064E0,9.151836395E0
1.324212618E0,-2.867056429E-1,-2.087145329E0,8.433575630E0
1.326210795E0,-7.128735781E-1,-3.289034605E0,1.150773048E1
1.328208972E0,-9.235633016E-1,-3.293823004E0,7.380126953E0
1.330207149E0,-3.154360652E-1,-1.785475969E0,1.100494766E1
1.332205326E0,-9.906009436E-1,-4.893149853E0,7.518990517E0
1.334203503E0,-4.782418013E-1,-4.505289078E0,1.371997261E1
1.336201681E0,-1.191713929E0,-2.647388458E0,5.728127480E0
1.338199858E0,-1.162983418E0,-4.337695122E0,1.047822380E1
1.340198035E0,-1.091157436E0,-7.052719593E0,1.250371838E1
1.342196212E0,-1.411980510E0,-2.269104719E0,6.058527470E0
1.344194389E0,-1.215655923E0,-3.657741547E0,9.769539833E0
1.346192566E0,-8.230068088E-1,-4.012083530E0,1.076073933E1
1.348190743E0,-1.311424017E0,-4.376002312E0,1.218768406E1
1.350188920E0,-1.134253025E0,-4.543596268E0,7.423222542E0
1.352187097E0,-6.602011323E-1,-5.108627796E0,1.033457184E1
1.354185274E0,-1.402403593E0,-6.095038891E0,9.894038200E0
1.356183451E0,-9.379284978E-1,-4.237138271E0,9.937133789E0
1.358181420E0,-1.277905107E0,-3.997718334E0,9.314641953E0
1.360179389E0,-9.475052953E-1,-5.807734966E0,9.032125473E0
1.362177358E0,-1.134253025E0,-7.086238384E0,1.148857689E1
1.364175326E0,-1.344942808E0,-6.310517311E0,9.783905029E0
1.366173295E0,-1.455076098E0,-5.462969780E0,9.530119896E0
1.368171264E0,-1.747168660E0,-6.128557682E0,8.103176117E0
1.370169285E0,-1.191713929E0,-5.036801815E0,1.166574764E1
1.372167358E0,-1.411980510E0,-5.027225018E0,8.553285599E0
1.374165483E0,-1.038484931E0,-6.320094109E0,1.241273880E1
1.376163660E0,-1.297058821E0,-6.382343292E0,8.007407188E0
1.378161889E0,-8.804676533E-1,-3.796605349E0,7.734468460E0
1.380160170E0,-6.027402878E-1,-5.036801815E0,1.047822380E1
1.382158503E0,-1.498171687E0,-5.970540524E0,1.043512821E1
1.384156889E0,-1.531690478E0,-5.424662590E0,9.678560257E0
1.386155326E0,-1.124676228E0,-4.840477467E0,9.630676270E0
1.388153816E0,-1.713649869E0,-5.213972569E0,8.352172852E0
1.390152306E0,-1.196502328E0,-5.271433830E0,1.131140614E1
1.392150795E0,-1.555632591E0,-5.328894615E0,9.142259598E0
1.394149285E0,-1.167771935E0,-4.648941040E0,8.175002098E0
1.396147774E0,-9.953893423E-1,-7.028777599E0,1.064102936E1
1.398146108E0,-7.703344226E-1,-5.850830555E0,9.664195061E0
1.400144233E0,-7.128735781E-1,-7.014412403E0,1.176151562E1
1.402142358E0,-3.298012912E-1,-4.797381878E0,8.491036415E0
1.404140483E0,-5.686229095E-2,-4.452616692E0,7.681796074E0
1.406138608E0,-2.771288455E-1,-5.779004574E0,1.111029339E1
1.408136733E0,6.763619930E-2,-5.190030575E0,1.083735371E1
1.410134858E0,-2.244564146E-1,-5.051167011E0,9.922768593E0
1.412132983E0,5.985504249E-4,-4.864419460E0,8.246828079E0
1.414131108E0,5.129576921E-1,-5.826888561E0,1.120606136E1
1.416129233E0,1.969230920E-1,-5.563526154E0,1.019091988E1
1.418127358E0,1.921346933E-1,-5.151723385E0,8.797493935E0
1.420125483E0,1.921346933E-1,-5.348048210E0,8.802282333E0
1.422123608E0,5.386953708E-3,-5.257068157E0,9.458293915E0
1.424121733E0,3.597288132E-1,-5.812523365E0,1.056920338E1
1.426119858E0,3.932476342E-1,-6.061520100E0,1.054526138E1
1.428118035E0,2.591723204E-1,-6.722319603E0,1.038724422E1
1.430116264E0,2.454056777E-2,-6.583456039E0,9.549273491E0
1.432114545E0,2.112883031E-1,-5.941810131E0,9.865307808E0
1.434112878E0,7.242459804E-2,-5.625775337E0,8.993818283E0
1.436111264E0,-5.207388848E-2,-5.937021732E0,8.912415504E0
1.438109701E0,9.636662155E-2,-5.281010628E0,9.041702271E0
1.440108139E0,-1.622071713E-1,-6.051943302E0,1.054526138E1
1.442106576E0,1.729810685E-1,-5.649717331E0,1.015261269E1
1.444105014E0,-7.224503756E-1,-5.108627796E0,8.969876289E0
1.446103451E0,-1.813607812E-1,-5.233126163E0,1.081341171E1
1.448101889E0,1.681926697E-1,-3.959411144E0,1.002332497E1
1.450100222E0,5.129576921E-1,-3.715202570E0,8.639476776E0
1.452098503E0,-6.165069342E-2,-4.845265865E0,9.731232643E0
1.454096576E0,6.284779310E-2,-5.611410141E0,1.027232265E1
1.456094545E0,1.442506462E-1,-5.764639378E0,1.077510452E1
1.458092514E0,-3.872621357E-1,-5.079897404E0,9.573215485E0
1.460090483E0,-9.906009436E-1,-4.629787445E0,7.313088894E0
1.462088451E0,-6.218938828E-1,-5.836465359E0,1.098100567E1
1.464086420E0,-2.531868219E-1,-5.544372559E0,1.056920338E1
1.466084389E0,-4.782418013E-1,-4.792593479E0,9.247604370E0
1.468082358E0,9.636662155E-2,-4.308964729E0,9.027337074E0
1.470080326E0,4.315548539E-1,-4.083909512E0,1.036809063E1
1.472078295E0,3.597288132E-1,-2.479794502E0,9.099164009E0
1.474076264E0,1.298854351E-1,-3.336918592E0,1.081341171E1
1.476074233E0,-3.770867735E-2,-3.135805607E0,1.085171890E1
1.478072201E0,5.129576921E-1,-1.900397658E0,8.826224327E0
1.480070170E0,7.721300423E-2,-2.709637880E0,8.711302757E0
1.482068191E0,4.848258570E-2,-4.045602322E0,1.082777691E1
1.484066264E0,2.932897024E-2,-3.763086557E0,9.846154213E0
1.486064389E0,2.448071241E-1,-3.427898169E0,8.136694908E0
1.488062566E0,-1.376665942E-2,-3.968987942E0,1.001853657E1
1.490060795E0,-5.686229095E-2,-3.715202570E0,1.068891335E1
1.492059076E0,-9.516951442E-2,-2.288258314E0,9.510966301E0
1.494057410E0,-1.909375787E-1,-1.957858443E0,9.506177902E0
1.496055795E0,-8.080431074E-2,-2.130240917E0,9.678560257E0
1.498054233E0,4.369417951E-2,-2.412756681E0,9.649829865E0
1.500052722E0,5.985504249E-4,-2.915539026E0,9.965864182E0
1.502051212E0,3.890577704E-2,-2.939481020E0,1.007120991E1
1.504049701E0,-3.393780887E-1,-3.111863613E0,1.020528507E1
1.506048191E0,-4.351461530E-1,-2.963423252E0,9.501389503E0
1.508046681E0,-3.202244639E-1,-2.747945070E0,9.578003883E0
1.510045170E0,-1.376665942E-2,-2.364872694E0,9.506177902E0
1.512043243E0,7.242459804E-2,-2.125452518E0,9.362525940E0
1.514041316E0,1.017535757E-2,-2.235585928E0,9.913191795E0
1.516039389E0,-8.559270948E-2,-2.240374327E0,1.010951710E1
1.518037462E0,-3.154360652E-1,-2.407968283E0,1.004726696E1
1.520035535E0,-2.005143911E-1,-2.010530949E0,9.285911560E0
1.522033608E0,-9.516951442E-2,-1.675342679E0,9.482235909E0
1.524031681E0,1.017535757E-2,-1.517325282E0,9.951498985E0
1.526029753E0,1.203086376E-1,-1.464652896E0,9.913191795E0
1.528027826E0,-6.643909961E-2,-1.431134105E0,9.400833130E0
1.530025899E0,-2.148796022E-1,-1.646612167E0,9.458293915E0
1.532023972E0,-5.213374496E-1,-3.107075214E0,9.827000618E0
1.534022045E0,2.112883031E-1,-1.977012038E0,1.048301220E1
1.536020118E0,-3.681085110E-1,-2.661753654E0,7.959523678E0
1.538018191E0,-4.064157307E-1,-3.063979626E0,1.096664047E1
1.540016264E0,-1.909375787E-1,-1.948281646E0,9.668983459E0
1.542014337E0,-2.436100245E-1,-1.450287700E0,9.127894402E0
